07/01/2020 15:23:00
Tempo T_f_e T_f_s AR AR T_q_e T_q_s Corrente_P_f Corrente_P_q Corrente_P_RESERVA Corrente_eletromag_f Corrente_eletromag_q AR AR T_1 T_2 T_3 T_4 T_5 T_6 T_7 T_8 T_9 T_10 T_11 T_12 T_13 T_14 T_15 T_16 Velocidade_f_(m/s) Vazao_f_(L/s) q_f_(W) AR AR AR Velocidade_q_(m/s) Vazao_q_(L/s) q_q_(W) DeltaP_q_(Pa) DeltaP_f_(Pa) DeltaP_f_(Psi) AR
0,006000  	9,925139  	65,608063  	957,045375  	1256,670793  	79,910143  	76,140211  	0,004006  	0,008275  	0,003960  	0,004048  	0,004314  	0,000001  	-0,000001  	25,607925  	20,064010  	22,160300  	33,599110  	49,759650  	46,885711  	48,686150  	54,396173  	65,520523  	63,492892  	65,631778  	72,750439  	25,238460  	23,356964  	19,303343  	74,839429  	0,045662  	0,023137  	-5394,106942  	4415,427019  	-0,012267  	-0,049983  	0,274564  	0,139124  	-2,199685  	9194,415289  	1058,143023  	0,153471  	-0,047937  
2,553000  	9,925690  	65,597364  	-242,047242  	657,183579  	79,909705  	76,140461  	0,004004  	0,008400  	0,003959  	0,004013  	0,004375  	0,000000  	-0,000000  	25,610085  	20,065291  	22,160924  	33,603900  	49,748990  	46,871110  	48,692170  	54,388353  	65,526504  	63,487902  	65,631942  	72,753824  	25,253681  	23,389952  	19,309521  	74,846036  	0,016959  	0,008593  	-2002,989112  	32740,940264  	-0,035222  	-0,049995  	0,323124  	0,163729  	-2,588253  	9464,771491  	1005,241312  	0,145798  	-0,047947  
3,554000  	9,925873  	65,605201  	657,272221  	657,183579  	79,916204  	76,124953  	0,004010  	0,008391  	0,003962  	0,004008  	0,004377  	0,000002  	-0,000000  	25,613898  	20,068234  	22,174283  	33,614555  	49,760730  	46,889762  	48,696069  	54,404938  	65,524624  	63,498762  	65,639517  	72,761319  	25,254044  	23,423569  	19,316969  	74,846665  	0,013086  	0,006631  	-1545,794482  	-1,809710  	-0,018191  	-0,049970  	0,325059  	0,164710  	-2,618949  	9444,138117  	1144,450767  	0,165989  	-0,047926  
4,552000  	9,927525  	65,605699  	1256,818530  	1256,670793  	79,915954  	76,123892  	0,004007  	0,008302  	0,003964  	0,003947  	0,004399  	0,000000  	-0,000000  	25,609671  	20,071455  	22,171385  	33,609033  	49,763788  	46,880005  	48,691132  	54,386615  	65,522480  	63,483167  	65,631550  	72,762599  	25,256304  	23,459353  	19,305611  	74,845762  	-0,036262  	-0,018374  	4283,287903  	-1,993342  	-0,011067  	-0,049994  	0,342056  	0,173322  	-2,756477  	9252,429410  	1081,578792  	0,156870  	-0,047946  
5,553000  	9,927495  	65,601407  	57,725912  	1256,670793  	79,914673  	76,133378  	0,004004  	0,008388  	0,003962  	0,003986  	0,004336  	-0,000001  	-0,000001  	25,604376  	20,071054  	22,163482  	33,609341  	49,756128  	46,880130  	48,691338  	54,391320  	65,523184  	63,484894  	65,632796  	72,746309  	25,240707  	23,476630  	19,305509  	74,839972  	-0,004394  	-0,002227  	518,999272  	24494,904572  	-0,018204  	-0,050009  	0,292191  	0,148055  	-2,347956  	9438,635601  	1011,645724  	0,146727  	-0,047959  
6,556000  	9,928106  	65,599043  	1256,818530  	1256,670793  	79,917797  	76,140118  	0,004006  	0,008433  	0,003963  	0,003985  	0,004355  	0,000003  	-0,000000  	25,606172  	20,063964  	22,158099  	33,610567  	49,747117  	46,875668  	48,686195  	54,388673  	65,523812  	63,479281  	65,632704  	72,750513  	25,244670  	23,500852  	19,297810  	74,836013  	-0,005893  	-0,002986  	696,007618  	-1,992299  	-0,011061  	-0,049965  	0,307610  	0,155868  	-2,469495  	9536,193131  	1063,036361  	0,154180  	-0,047921  
7,555000  	9,928198  	65,599603  	357,499067  	1256,670793  	79,919953  	76,140617  	0,004008  	0,008398  	0,003963  	0,004019  	0,004317  	0,000001  	-0,000000  	25,602999  	20,062238  	22,167316  	33,606142  	49,744232  	46,882216  	48,676290  	54,382033  	65,527687  	63,479411  	65,633061  	72,746717  	25,252362  	23,529278  	19,299320  	74,839869  	0,022164  	0,011230  	-2617,683920  	16228,904209  	-0,015674  	-0,049993  	0,277577  	0,140650  	-2,229368  	9459,004390  	1089,529583  	0,158023  	-0,047945  
8,556000  	9,929850  	65,598608  	957,045375  	57,696365  	79,920390  	76,142053  	0,004009  	0,008275  	0,003962  	0,003963  	0,004356  	0,000002  	-0,000001  	25,604610  	20,065414  	22,162983  	33,599495  	49,747425  	46,885643  	48,685621  	54,384568  	65,524135  	63,478600  	65,627970  	72,751621  	25,250497  	23,540437  	19,302843  	74,839456  	-0,023550  	-0,011933  	2781,265680  	-21299,427469  	-0,021687  	-0,049981  	0,308465  	0,156302  	-2,476797  	9193,859236  	1111,397789  	0,161195  	-0,047935  
9,554000  	9,927709  	65,592605  	957,045375  	956,927186  	79,918047  	76,136311  	0,004008  	0,008508  	0,003963  	0,003976  	0,004362  	0,000001  	-0,000001  	25,607717  	20,075125  	22,168066  	33,612577  	49,755546  	46,883688  	48,692117  	54,391298  	65,530367  	63,483410  	65,637829  	72,754540  	25,258312  	23,552966  	19,303484  	74,843772  	-0,013086  	-0,006631  	1545,406346  	-1,916857  	-0,013764  	-0,049993  	0,313064  	0,158632  	-2,515985  	9697,113075  	1094,740670  	0,158779  	-0,047946  
10,555000  	9,928076  	65,582839  	357,499067  	357,439972  	79,915797  	76,130819  	0,004005  	0,008351  	0,003964  	0,003996  	0,004324  	0,000001  	-0,000000  	25,611341  	20,072021  	22,162668  	33,610018  	49,749483  	46,878993  	48,688947  	54,392526  	65,530156  	63,477030  	65,639015  	72,751428  	25,263886  	23,546058  	19,313019  	74,840732  	0,003233  	0,001638  	-381,755985  	-1,684845  	-0,026846  	-0,049987  	0,282938  	0,143367  	-2,275813  	9359,603255  	1029,482045  	0,149314  	-0,047940  
11,557000  	9,928810  	65,581999  	1256,818530  	1256,670793  	79,912205  	76,138433  	0,004005  	0,008464  	0,003965  	0,004049  	0,004341  	-0,000000  	-0,000000  	25,601384  	20,065546  	22,156219  	33,608800  	49,742484  	46,880108  	48,683445  	54,387249  	65,522350  	63,473065  	65,635082  	72,746802  	25,259478  	23,524876  	19,308338  	74,836106  	0,046403  	0,023513  	-5478,709604  	-1,993682  	-0,011069  	-0,050003  	0,296083  	0,150027  	-2,374498  	9602,895398  	1038,273106  	0,150589  	-0,047954  
12,555000  	9,928198  	65,583119  	1256,818530  	1256,670793  	79,912892  	76,136498  	0,004010  	0,008306  	0,003962  	0,004003  	0,004391  	0,000001  	-0,000000  	25,601101  	20,063241  	22,162607  	33,606736  	49,747599  	46,883720  	48,685210  	54,382770  	65,521404  	63,479024  	65,632286  	72,750758  	25,276026  	23,508228  	19,298787  	74,839739  	0,008928  	0,004524  	-1054,093773  	-1,993141  	-0,011066  	-0,049988  	0,335716  	0,170110  	-2,694212  	9262,477267  	1141,301519  	0,165532  	-0,047941  
13,555000  	9,927403  	65,586509  	57,725912  	1256,670793  	79,913111  	76,147888  	0,004004  	0,008471  	0,003964  	0,004057  	0,004323  	-0,000000  	-0,000001  	25,608005  	20,058559  	22,164719  	33,603052  	49,749065  	46,885428  	48,686572  	54,382170  	65,521847  	63,478992  	65,631194  	72,751717  	25,285933  	23,489945  	19,296099  	74,841208  	0,052716  	0,026712  	-6224,776409  	24492,705774  	-0,018202  	-0,050004  	0,282222  	0,143004  	-2,258219  	9617,736203  	1014,413672  	0,147128  	-0,047955  
14,558000  	9,927158  	65,592605  	1256,818530  	1256,670793  	79,911611  	76,146764  	0,004009  	0,008441  	0,003964  	0,003988  	0,004316  	0,000001  	-0,000000  	25,615553  	20,065477  	22,166475  	33,608194  	49,747962  	46,891965  	48,692342  	54,389065  	65,525914  	63,479295  	65,639863  	72,756509  	25,289654  	23,476377  	19,299840  	74,836978  	-0,003066  	-0,001554  	362,075916  	-1,992919  	-0,011065  	-0,049982  	0,276758  	0,140235  	-2,214275  	9552,080249  	1127,567692  	0,163540  	-0,047936  
15,556000  	9,926975  	65,600443  	1256,818530  	1256,670793  	79,912954  	76,144330  	0,004007  	0,008274  	0,003964  	0,003994  	0,004343  	0,000000  	-0,000000  	25,611372  	20,071459  	22,166166  	33,609196  	49,743814  	46,887709  	48,698247  	54,391492  	65,525050  	63,479955  	65,644421  	72,756497  	25,293507  	23,461554  	19,300041  	74,834756  	0,001905  	0,000965  	-225,048662  	-1,993551  	-0,011068  	-0,050000  	0,298284  	0,151142  	-2,388888  	9191,757414  	1087,820798  	0,157775  	-0,047951  
16,557000  	9,926730  	65,605544  	1256,818530  	1256,670793  	79,915016  	76,148824  	0,004007  	0,008419  	0,003960  	0,003978  	0,004370  	-0,000000  	-0,000001  	25,604319  	20,062611  	22,159118  	33,606451  	49,738361  	46,878690  	48,695854  	54,385119  	65,516734  	63,476727  	65,642276  	72,748483  	25,287406  	23,433067  	19,301456  	74,830985  	-0,010873  	-0,005509  	1284,343648  	-1,993687  	-0,011069  	-0,050004  	0,319157  	0,161719  	-2,554411  	9504,735124  	1076,318277  	0,156107  	-0,047954  
17,558000  	9,924741  	65,611360  	-242,047242  	1256,670793  	79,918922  	76,152225  	0,004007  	0,008350  	0,003962  	0,004050  	0,004376  	-0,000000  	-0,000000  	25,613995  	20,062076  	22,163416  	33,608534  	49,741824  	46,882538  	48,695116  	54,382036  	65,514526  	63,475486  	65,644475  	72,751592  	25,290001  	23,411219  	19,308182  	74,828509  	0,047041  	0,023836  	-5557,364271  	35511,700926  	-0,021698  	-0,050004  	0,323891  	0,164118  	-2,592651  	9355,907557  	1082,567345  	0,157013  	-0,047955  
18,558000  	9,924130  	65,609805  	-242,047242  	1256,670793  	79,920484  	76,154035  	0,004007  	0,008467  	0,003963  	0,003989  	0,004312  	-0,000000  	-0,000000  	25,607413  	20,064876  	22,166049  	33,607992  	49,740206  	46,878323  	48,692280  	54,378766  	65,512776  	63,469718  	65,641600  	72,748649  	25,287632  	23,398867  	19,303575  	74,833656  	-0,002183  	-0,001106  	257,941422  	35511,700926  	-0,021698  	-0,050004  	0,273301  	0,138484  	-2,187547  	9608,840776  	1082,680322  	0,157030  	-0,047955  
19,557000  	9,923579  	65,603646  	657,272221  	1256,670793  	79,922671  	76,155939  	0,004005  	0,008350  	0,003961  	0,003905  	0,004340  	-0,000003  	-0,000000  	25,600843  	20,063055  	22,158654  	33,611319  	49,738639  	46,879449  	48,689231  	54,380571  	65,515353  	63,472225  	65,648646  	72,748866  	25,275626  	23,381674  	19,308325  	74,830276  	-0,070252  	-0,035597  	8298,568774  	9728,132508  	-0,013773  	-0,050032  	0,295285  	0,149623  	-2,363688  	9355,783754  	1038,562611  	0,150631  	-0,047979  
20,558000  	9,924191  	65,602589  	1256,818530  	1256,670793  	79,925357  	76,155626  	0,004004  	0,008388  	0,003962  	0,003959  	0,004327  	0,000000  	-0,000000  	25,607514  	20,061142  	22,163726  	33,602554  	49,737956  	46,874487  	48,688992  	54,381132  	65,505427  	63,473591  	65,650180  	72,747874  	25,264752  	23,369563  	19,308410  	74,830734  	-0,026446  	-0,013401  	3123,912862  	-1,993454  	-0,011068  	-0,049997  	0,285097  	0,144461  	-2,283956  	9438,895234  	1013,742868  	0,147031  	-0,047949  
21,559000  	9,923120  	65,599043  	957,045375  	1256,670793  	79,922327  	76,159184  	0,004009  	0,008344  	0,003963  	0,004021  	0,004333  	0,000000  	-0,000000  	25,603596  	20,062069  	22,166835  	33,608550  	49,741560  	46,878387  	48,696140  	54,378675  	65,517266  	63,474300  	65,645985  	72,746369  	25,271254  	23,368471  	19,304505  	74,841043  	0,023579  	0,011948  	-2785,128182  	4416,692954  	-0,012270  	-0,049999  	0,289983  	0,146937  	-2,319040  	9342,540362  	1113,148940  	0,161449  	-0,047951  
22,558000  	9,923120  	65,599230  	357,499067  	657,183579  	79,917641  	76,150946  	0,004008  	0,008409  	0,003960  	0,004004  	0,004379  	0,000001  	-0,000000  	25,598592  	20,067827  	22,159899  	33,612266  	49,743529  	46,879304  	48,690332  	54,375129  	65,514453  	63,479233  	65,649127  	72,753517  	25,257664  	23,361066  	19,307905  	74,833584  	0,009751  	0,004941  	-1151,746215  	7098,634446  	-0,021691  	-0,049988  	0,326771  	0,165577  	-2,615698  	9484,141367  	1108,799306  	0,160818  	-0,047941  
23,556000  	9,924313  	65,596151  	357,499067  	657,183579  	79,920015  	76,141990  	0,004008  	0,008391  	0,003962  	0,003986  	0,004391  	0,000001  	-0,000000  	25,605417  	20,065345  	22,157842  	33,608172  	49,744772  	46,876989  	48,691680  	54,375990  	65,508320  	63,468120  	65,644840  	72,748699  	25,254829  	23,360777  	19,304888  	74,826350  	-0,004450  	-0,002255  	525,632477  	7098,615208  	-0,021691  	-0,049988  	0,335731  	0,170117  	-2,695504  	9445,840940  	1091,407834  	0,158295  	-0,047941  
24,556000  	9,923518  	65,591547  	957,045375  	1256,670793  	79,926076  	76,138682  	0,004008  	0,008449  	0,003965  	0,003982  	0,004406  	0,000003  	-0,000000  	25,612903  	20,067327  	22,170265  	33,619255  	49,741982  	46,886886  	48,695167  	54,387343  	65,516896  	63,475320  	65,659529  	72,756945  	25,247295  	23,366868  	19,311094  	74,841558  	-0,007652  	-0,003877  	903,685111  	4413,529411  	-0,012262  	-0,049959  	0,348203  	0,176437  	-2,802566  	9570,834647  	1090,560502  	0,158172  	-0,047916  
25,555000  	9,922539  	65,593227  	57,725912  	1256,670793  	79,927013  	76,144081  	0,004006  	0,008326  	0,003961  	0,003951  	0,004355  	0,000001  	-0,000000  	25,601650  	20,057964  	22,178166  	33,609447  	49,736133  	46,879626  	48,689588  	54,369231  	65,501153  	63,482110  	65,647565  	72,748109  	25,233688  	23,343508  	19,305974  	74,831166  	-0,033128  	-0,016786  	3912,672752  	24485,501391  	-0,018197  	-0,049987  	0,307559  	0,155843  	-2,472528  	9304,994780  	1060,776811  	0,153853  	-0,047940  
26,562000  	9,923090  	65,602060  	657,272221  	1256,670793  	79,930887  	76,150821  	0,004009  	0,008370  	0,003964  	0,004037  	0,004387  	-0,000001  	-0,000000  	25,609785  	20,066806  	22,166802  	33,619728  	49,733492  	46,878488  	48,683681  	54,379994  	65,502403  	63,479917  	65,648763  	72,749950  	25,239570  	23,335207  	19,317672  	74,830214  	0,036988  	0,018742  	-4369,108281  	9724,396748  	-0,013768  	-0,050011  	0,332527  	0,168494  	-2,671221  	9400,413701  	1115,895705  	0,161847  	-0,047960  
27,553000  	9,922814  	65,614937  	657,272221  	1256,670793  	79,927076  	76,151289  	0,004007  	0,008490  	0,003963  	0,003996  	0,004330  	0,000001  	-0,000000  	25,607946  	20,049669  	22,156850  	33,610110  	49,736192  	46,885958  	48,697240  	54,375258  	65,508891  	63,473856  	65,658299  	72,755671  	25,226326  	23,308773  	19,302273  	74,827208  	0,003114  	0,001578  	-367,981115  	9719,939753  	-0,013762  	-0,049985  	0,287356  	0,145605  	-2,305746  	9657,528634  	1080,018290  	0,156643  	-0,047938  
28,554000  	9,922447  	65,626631  	1256,818530  	1256,670793  	79,920952  	76,151476  	0,004010  	0,008463  	0,003962  	0,004001  	0,004412  	0,000001  	-0,000000  	25,620683  	20,066917  	22,173381  	33,618119  	49,751245  	46,883690  	48,699312  	54,383570  	65,504690  	63,479552  	65,668859  	72,755478  	25,239188  	23,305912  	19,310974  	74,843125  	0,007765  	0,003934  	-917,602940  	-1,993177  	-0,011066  	-0,049989  	0,352581  	0,178655  	-2,824388  	9599,042647  	1138,357043  	0,165105  	-0,047942  
29,557000  	9,923946  	65,637082  	957,045375  	1256,670793  	79,918484  	76,155595  	0,004011  	0,008227  	0,003965  	0,003959  	0,004377  	0,000001  	-0,000001  	25,612065  	20,069311  	22,173028  	33,612581  	49,735072  	46,886688  	48,708929  	54,387250  	65,497734  	63,480016  	65,664243  	72,749390  	25,238975  	23,296753  	19,316768  	74,833386  	-0,026450  	-0,013402  	3126,270196  	4415,944519  	-0,012268  	-0,049990  	0,324615  	0,164485  	-2,595817  	9090,146924  	1165,055037  	0,168977  	-0,047943  
30,556000  	9,923579  	65,640876  	357,499067  	1256,670793  	79,919859  	76,159527  	0,004005  	0,008467  	0,003963  	0,003995  	0,004322  	0,000001  	-0,000000  	25,619671  	20,072192  	22,172790  	33,621186  	49,742605  	46,885249  	48,704474  	54,385416  	65,514351  	63,483444  	65,671229  	72,751947  	25,231537  	23,271708  	19,311461  	74,844821  	0,002244  	0,001137  	-265,266567  	16227,545647  	-0,015672  	-0,049988  	0,281302  	0,142538  	-2,247936  	9608,832286  	1030,986058  	0,149532  	-0,047941  
31,556000  	9,923304  	65,641623  	1256,818530  	1256,670793  	79,916578  	76,159933  	0,004007  	0,008414  	0,003962  	0,004013  	0,004318  	0,000001  	-0,000000  	25,608686  	20,074580  	22,167847  	33,618135  	49,740733  	46,873493  	48,703630  	54,381470  	65,504777  	63,476124  	65,663972  	72,750874  	25,227636  	23,268798  	19,304257  	74,833169  	0,017231  	0,008731  	-2036,826753  	-1,993183  	-0,011066  	-0,049989  	0,278213  	0,140973  	-2,221072  	9494,836537  	1081,169248  	0,156810  	-0,047942  
32,556000  	9,923487  	65,635091  	1256,818530  	1256,670793  	79,913579  	76,157936  	0,004008  	0,008494  	0,003962  	0,003876  	0,004397  	0,000002  	-0,000001  	25,606847  	20,066541  	22,163785  	33,616057  	49,736009  	46,884970  	48,697383  	54,376472  	65,496971  	63,482731  	65,656736  	72,747083  	25,215538  	23,258786  	19,305152  	74,822291  	-0,093786  	-0,047522  	11084,787482  	-1,992780  	-0,011064  	-0,049978  	0,340969  	0,172772  	-2,721348  	9667,690390  	1095,686856  	0,158916  	-0,047933  
33,555000  	9,923365  	65,630861  	1256,818530  	57,696365  	79,912423  	76,149292  	0,004008  	0,008389  	0,003963  	0,004038  	0,004377  	0,000001  	-0,000000  	25,614678  	20,077469  	22,178550  	33,627123  	49,741745  	46,892346  	48,706990  	54,386080  	65,497878  	63,484491  	65,667489  	72,749517  	25,213084  	23,268461  	19,304178  	74,836951  	0,037773  	0,019140  	-4464,193004  	-24490,228058  	-0,018198  	-0,049993  	0,324628  	0,164491  	-2,596087  	9439,533350  	1105,459409  	0,160333  	-0,047945  
34,554000  	9,922875  	65,628684  	1256,818530  	1256,670793  	79,912048  	76,146484  	0,004009  	0,008256  	0,003965  	0,004008  	0,004344  	0,000001  	-0,000001  	25,613922  	20,065867  	22,167937  	33,617831  	49,735069  	46,889161  	48,701207  	54,385852  	65,498080  	63,483402  	65,672728  	72,745513  	25,205858  	23,267931  	19,309154  	74,831389  	0,013147  	0,006662  	-1553,689059  	-1,993023  	-0,011065  	-0,049985  	0,298588  	0,151297  	-2,389388  	9153,244753  	1112,739396  	0,161389  	-0,047939  
35,560000  	9,922967  	65,621872  	1256,818530  	1256,670793  	79,908737  	76,147544  	0,004004  	0,008435  	0,003965  	0,003979  	0,004332  	0,000001  	-0,000000  	25,611198  	20,061258  	22,164606  	33,614095  	49,732900  	46,884752  	48,704276  	54,382492  	65,506592  	63,474201  	65,673097  	72,745811  	25,198582  	23,275473  	19,314877  	74,828518  	-0,010382  	-0,005261  	1226,854408  	-1,993029  	-0,011065  	-0,049985  	0,289104  	0,146491  	-2,310809  	9540,231941  	1009,583884  	0,146428  	-0,047939  
36,553000  	9,923028  	65,618887  	1256,818530  	57,696365  	79,908674  	76,142677  	0,004009  	0,008398  	0,003964  	0,004025  	0,004324  	-0,000000  	-0,000000  	25,613918  	20,069700  	22,174717  	33,618023  	49,736920  	46,886987  	48,707303  	54,384555  	65,497175  	63,476758  	65,672351  	72,751080  	25,195822  	23,286532  	19,316182  	74,829348  	0,026970  	0,013666  	-3186,785742  	-24494,236852  	-0,018201  	-0,050002  	0,283252  	0,143526  	-2,266919  	9459,056034  	1118,254110  	0,162189  	-0,047953  
37,553000  	9,922080  	65,617362  	957,045375  	-242,047242  	79,907050  	76,138464  	0,004011  	0,008349  	0,003961  	0,004079  	0,004365  	0,000002  	-0,000000  	25,612101  	20,072099  	22,169131  	33,621941  	49,733147  	46,889899  	48,703028  	54,383251  	65,494667  	63,476481  	65,670701  	72,746264  	25,191910  	23,287326  	19,309079  	74,834225  	0,070554  	0,035750  	-8336,580831  	-34181,279089  	-0,026841  	-0,049979  	0,315265  	0,159747  	-2,524857  	9354,378058  	1158,283448  	0,167995  	-0,047934  
38,558000  	9,922814  	65,617922  	357,499067  	357,439972  	79,905988  	76,146078  	0,004004  	0,008343  	0,003963  	0,004005  	0,004374  	0,000001  	-0,000000  	25,614206  	20,070100  	22,166919  	33,622314  	49,740124  	46,889341  	48,706627  	54,384573  	65,496216  	63,479842  	65,676664  	72,749034  	25,189728  	23,291460  	19,304920  	74,833809  	0,010989  	0,005568  	-1298,394173  	-1,684974  	-0,026848  	-0,049991  	0,322651  	0,163490  	-2,578071  	9340,707369  	1013,764052  	0,147034  	-0,047944  
39,556000  	9,923365  	65,621001  	1256,818530  	1256,670793  	79,908362  	76,152412  	0,004007  	0,008428  	0,003962  	0,004004  	0,004398  	-0,000000  	-0,000000  	25,612934  	20,064643  	22,166834  	33,617462  	49,742813  	46,887378  	48,703465  	54,385039  	65,493687  	63,480145  	65,679060  	72,746781  	25,189694  	23,292979  	19,300871  	74,831986  	0,009609  	0,004869  	-1135,427454  	-1,993630  	-0,011069  	-0,050002  	0,341385  	0,172982  	-2,724888  	9524,202627  	1069,857377  	0,155170  	-0,047953  
40,555000  	9,922875  	65,626973  	1256,818530  	1256,670793  	79,915298  	76,146796  	0,004010  	0,008397  	0,003963  	0,003977  	0,004502  	0,000003  	-0,000000  	25,610385  	20,065639  	22,166214  	33,614433  	49,733540  	46,889437  	48,701292  	54,386704  	65,493086  	63,473518  	65,677284  	72,741248  	25,192515  	23,293143  	19,297809  	74,827742  	-0,012075  	-0,006119  	1427,030314  	-1,992030  	-0,011060  	-0,049957  	0,424181  	0,214936  	-3,397063  	9458,145551  	1142,028812  	0,165637  	-0,047915  
41,553000  	9,923671  	65,635962  	-242,047242  	1256,670793  	79,920171  	76,140648  	0,004007  	0,008359  	0,003962  	0,004073  	0,004346  	-0,000000  	-0,000000  	25,612641  	20,072577  	22,166709  	33,613450  	49,731992  	46,889443  	48,705970  	54,388699  	65,489704  	63,468664  	65,676396  	72,740146  	25,189599  	23,304591  	19,300562  	74,827803  	0,065956  	0,033420  	-7795,594666  	35512,564228  	-0,021699  	-0,050006  	0,300332  	0,152180  	-2,412248  	9375,031948  	1070,973030  	0,155332  	-0,047956  
42,552000  	9,923610  	65,637890  	357,499067  	1256,670793  	79,923233  	76,146889  	0,004007  	0,008446  	0,003962  	0,004047  	0,004328  	0,000001  	-0,000000  	25,613932  	20,068519  	22,159339  	33,614174  	49,733971  	46,886132  	48,708392  	54,386639  	65,486435  	63,468064  	65,676093  	72,738984  	25,182516  	23,322316  	19,303716  	74,831421  	0,044851  	0,022727  	-5301,367508  	16226,080112  	-0,015671  	-0,049983  	0,286045  	0,144941  	-2,295568  	9563,172297  	1075,470946  	0,155984  	-0,047937  
43,555000  	9,923243  	65,634624  	1256,818530  	1256,670793  	79,922920  	76,145735  	0,004004  	0,008361  	0,003964  	0,004024  	0,004281  	0,000001  	-0,000000  	25,620519  	20,065297  	22,160327  	33,623553  	49,738213  	46,889827  	48,717422  	54,393461  	65,492311  	63,475559  	65,686224  	72,750527  	25,183093  	23,335396  	19,311557  	74,829242  	0,025875  	0,013111  	-3058,207234  	-1,992919  	-0,011065  	-0,049982  	0,248820  	0,126079  	-1,997275  	9379,610540  	1005,368412  	0,145816  	-0,047936  
44,553000  	9,921835  	65,624920  	57,725912  	57,696365  	79,921546  	76,146546  	0,004010  	0,008311  	0,003963  	0,003965  	0,004394  	0,000000  	-0,000000  	25,624305  	20,070213  	22,169528  	33,631851  	49,742356  	46,888040  	48,718890  	54,398672  	65,494057  	63,481322  	65,693859  	72,754143  	25,179293  	23,340534  	19,315155  	74,836510  	-0,021779  	-0,011036  	2573,726975  	-1,524964  	-0,051177  	-0,049998  	0,338478  	0,171509  	-2,715380  	9273,153337  	1137,996927  	0,165052  	-0,047949  
45,552000  	9,922080  	65,612168  	-242,047242  	57,696365  	79,915891  	76,145891  	0,004006  	0,008441  	0,003962  	0,003982  	0,004451  	0,000002  	-0,000000  	25,614908  	20,065895  	22,164699  	33,626945  	49,730743  	46,883651  	48,713658  	54,389803  	65,487846  	63,478524  	65,689199  	72,741227  	25,171987  	23,348591  	19,301357  	74,840331  	-0,007563  	-0,003832  	893,559440  	27688,007349  	-0,093529  	-0,049977  	0,383099  	0,194119  	-3,069280  	9552,768594  	1065,084078  	0,154477  	-0,047932  
46,552000  	9,923059  	65,605450  	357,499067  	1256,670793  	79,913829  	76,145703  	0,004005  	0,008513  	0,003962  	0,003951  	0,004460  	0,000000  	-0,000001  	25,617331  	20,071832  	22,168140  	33,614261  	49,739249  	46,900740  	48,719231  	54,394665  	65,494836  	63,478363  	65,699287  	72,753398  	25,172132  	23,354114  	19,309014  	74,838808  	-0,032696  	-0,016567  	3862,369240  	16230,521884  	-0,015675  	-0,049998  	0,390418  	0,197827  	-3,126357  	9708,081320  	1040,680939  	0,150938  	-0,047950  
47,554000  	9,923243  	65,605823  	1256,818530  	1256,670793  	79,918359  	76,147638  	0,004008  	0,008339  	0,003959  	0,003935  	0,004371  	0,000002  	-0,000000  	25,614319  	20,066452  	22,164153  	33,607955  	49,730951  	46,884973  	48,706602  	54,382997  	65,489441  	63,467575  	65,688648  	72,744589  	25,182481  	23,345520  	19,310820  	74,830268  	-0,046137  	-0,023378  	5450,267085  	-1,992735  	-0,011064  	-0,049977  	0,320266  	0,162281  	-2,566372  	9331,857925  	1096,929609  	0,159096  	-0,047932  
48,553000  	9,922753  	65,613661  	1256,818530  	1256,670793  	79,919546  	76,152631  	0,004008  	0,008404  	0,003965  	0,004016  	0,004366  	0,000001  	-0,000000  	25,609053  	20,065830  	22,157761  	33,615614  	49,723230  	46,889107  	48,707659  	54,389559  	65,489306  	63,470704  	65,691053  	72,746059  	25,188055  	23,362413  	19,303443  	74,832884  	0,019441  	0,009851  	-2296,923094  	-1,993259  	-0,011067  	-0,049992  	0,315991  	0,160115  	-2,529560  	9472,692058  	1098,363011  	0,159304  	-0,047944  
49,553000  	9,923028  	65,624454  	1256,818530  	57,696365  	79,915704  	76,153973  	0,004005  	0,008433  	0,003962  	0,004080  	0,004351  	0,000002  	-0,000000  	25,619575  	20,073262  	22,169496  	33,631591  	49,738641  	46,895903  	48,722848  	54,396012  	65,494385  	63,485120  	65,700718  	72,753512  	25,213308  	23,374264  	19,317616  	74,843504  	0,071789  	0,036376  	-8483,393895  	-24481,677760  	-0,018191  	-0,049973  	0,303961  	0,154019  	-2,429909  	9534,881526  	1027,427267  	0,149016  	-0,047928  
50,557000  	9,921866  	65,628559  	1256,818530  	657,183579  	79,916453  	76,152537  	0,004008  	0,008320  	0,003960  	0,003988  	0,004308  	-0,000001  	-0,000001  	25,617821  	20,075096  	22,174139  	33,624305  	49,732409  	46,893603  	48,719160  	54,385838  	65,483092  	63,477013  	65,700093  	72,739228  	25,220099  	23,388514  	19,313891  	74,848608  	-0,002760  	-0,001398  	326,142088  	-9727,858695  	-0,013768  	-0,050009  	0,270255  	0,136940  	-2,161710  	9291,189676  	1089,847332  	0,158069  	-0,047960  
51,553000  	9,922967  	65,641249  	1256,818530  	657,183579  	79,918609  	76,152100  	0,004007  	0,008453  	0,003963  	0,003983  	0,004365  	0,000001  	-0,000000  	25,608510  	20,060039  	22,159022  	33,622793  	49,724145  	46,886710  	48,707641  	54,382126  	65,483744  	63,458037  	65,683806  	72,735688  	25,207531  	23,384351  	19,303677  	74,832583  	-0,006976  	-0,003535  	824,575314  	-9723,224817  	-0,013761  	-0,049983  	0,315146  	0,159687  	-2,522523  	9577,521427  	1076,579538  	0,156145  	-0,047937  
52,554000  	9,921560  	65,651078  	57,725912  	1256,670793  	79,918172  	76,150478  	0,004005  	0,008426  	0,003963  	0,004093  	0,004333  	0,000000  	-0,000000  	25,623681  	20,071505  	22,167151  	33,620073  	49,733381  	46,895517  	48,714918  	54,390687  	65,482802  	63,466133  	65,694779  	72,745790  	25,227903  	23,402984  	19,310581  	74,844402  	0,082113  	0,041607  	-9708,286223  	24489,093718  	-0,018200  	-0,049995  	0,289675  	0,146781  	-2,319376  	9520,998603  	1039,191049  	0,150722  	-0,047947  
53,552000  	9,922355  	65,653535  	1256,818530  	1256,670793  	79,916172  	76,148481  	0,004009  	0,008348  	0,003960  	0,003990  	0,004352  	0,000000  	-0,000000  	25,621391  	20,075458  	22,165963  	33,630108  	49,732898  	46,888519  	48,717869  	54,400334  	65,489716  	63,486277  	65,704625  	72,753163  	25,243112  	23,416138  	19,310569  	74,848418  	-0,001508  	-0,000764  	178,239533  	-1,993551  	-0,011068  	-0,050000  	0,304765  	0,154427  	-2,440196  	9353,028251  	1128,612734  	0,163691  	-0,047951  
54,557000  	9,922050  	65,650487  	657,272221  	657,183579  	79,916860  	76,148855  	0,004005  	0,008320  	0,003963  	0,004051  	0,004328  	0,000001  	-0,000000  	25,627489  	20,071578  	22,174879  	33,630364  	49,736184  	46,898628  	48,724929  	54,394319  	65,493192  	63,481577  	65,707832  	72,750995  	25,229809  	23,417006  	19,311885  	74,843458  	0,048306  	0,024477  	-5711,149071  	-1,810313  	-0,018197  	-0,049989  	0,285934  	0,144885  	-2,289607  	9292,090963  	1037,143331  	0,150425  	-0,047942  
55,552000  	9,921866  	65,642276  	657,272221  	657,183579  	79,919546  	76,152818  	0,004007  	0,008279  	0,003960  	0,003953  	0,004366  	0,000000  	-0,000000  	25,624851  	20,072774  	22,172253  	33,622568  	49,744609  	46,892467  	48,717818  	54,400883  	65,497853  	63,482601  	65,701827  	72,741479  	25,248818  	23,425375  	19,305587  	74,836708  	-0,031851  	-0,016139  	3765,198238  	-1,810479  	-0,018199  	-0,049994  	0,316211  	0,160227  	-2,531197  	9202,682504  	1082,539100  	0,157009  	-0,047946  
56,554000  	9,921315  	65,636988  	1256,818530  	1256,670793  	79,918984  	76,137278  	0,004007  	0,008396  	0,003964  	0,004034  	0,004330  	0,000001  	-0,000000  	25,612289  	20,069082  	22,160262  	33,623772  	49,724940  	46,883199  	48,715248  	54,393227  	65,486683  	63,471138  	65,690857  	72,735355  	25,226586  	23,411884  	19,293624  	74,825322  	0,034577  	0,017521  	-4087,096865  	-1,993242  	-0,011067  	-0,049991  	0,287546  	0,145701  	-2,310881  	9456,517010  	1079,079165  	0,156507  	-0,047944  
57,553000  	9,921009  	65,627440  	1256,818530  	1256,670793  	79,921640  	76,132286  	0,004007  	0,008346  	0,003962  	0,004001  	0,004324  	0,000001  	-0,000001  	25,619501  	20,071854  	22,179139  	33,630643  	49,747268  	46,902326  	48,718005  	54,403525  	65,497606  	63,479619  	65,700576  	72,754408  	25,235181  	23,419882  	19,311776  	74,841555  	0,007815  	0,003960  	-923,605817  	-1,992986  	-0,011065  	-0,049984  	0,282715  	0,143254  	-2,276650  	9346,848709  	1085,878998  	0,157493  	-0,047938  
58,555000  	9,921927  	65,623459  	657,272221  	657,183579  	79,921702  	76,138027  	0,004008  	0,008422  	0,003962  	0,004030  	0,004393  	-0,000001  	-0,000000  	25,627908  	20,077930  	22,181655  	33,624676  	49,737336  	46,899573  	48,722990  	54,395711  	65,498825  	63,481627  	65,701428  	72,748493  	25,247016  	23,428226  	19,317925  	74,847597  	0,031141  	0,015780  	-3680,020721  	-1,810876  	-0,018203  	-0,050006  	0,337304  	0,170914  	-2,712178  	9512,084074  	1107,076400  	0,160568  	-0,047957  
59,553000  	9,921744  	65,624298  	-242,047242  	657,183579  	79,922920  	76,140492  	0,004008  	0,008296  	0,003961  	0,003927  	0,004379  	0,000001  	-0,000000  	25,623117  	20,074728  	22,171302  	33,627402  	49,734011  	46,901369  	48,733891  	54,386895  	65,491904  	63,478424  	65,709218  	72,745157  	25,220075  	23,419063  	19,307886  	74,850750  	-0,052256  	-0,026478  	6175,244352  	32735,811364  	-0,035217  	-0,049987  	0,326795  	0,165589  	-2,626813  	9240,110650  	1104,541467  	0,160200  	-0,047940  
60,554000  	9,920092  	65,626351  	957,045375  	1256,670793  	79,922421  	76,146608  	0,004007  	0,008333  	0,003961  	0,003982  	0,004410  	0,000001  	-0,000000  	25,617639  	20,071169  	22,170741  	33,625309  	49,733409  	46,900391  	48,733619  	54,393262  	65,490877  	63,474437  	65,706158  	72,748920  	25,222127  	23,424500  	19,304385  	74,850754  	-0,008268  	-0,004189  	977,118611  	4415,824201  	-0,012268  	-0,049988  	0,351213  	0,177962  	-2,818153  	9319,498134  	1080,095962  	0,156655  	-0,047941  
61,556000  	9,919327  	65,632541  	1256,818530  	-242,047242  	79,921265  	76,143363  	0,004008  	0,008296  	0,003963  	0,004045  	0,004388  	-0,000000  	-0,000000  	25,620881  	20,078254  	22,176827  	33,638139  	49,740541  	46,899464  	48,733263  	54,400077  	65,498036  	63,477135  	65,703547  	72,750529  	25,225150  	23,436296  	19,314137  	74,851852  	0,043280  	0,021931  	-5115,588576  	-35510,319679  	-0,021695  	-0,050001  	0,333750  	0,169113  	-2,679509  	9240,309442  	1088,378625  	0,157856  	-0,047952  
62,553000  	9,919755  	65,634842  	1256,818530  	-242,047242  	79,923077  	76,133253  	0,004008  	0,008363  	0,003963  	0,004032  	0,004297  	0,000002  	-0,000000  	25,623406  	20,077901  	22,178985  	33,634344  	49,738025  	46,900205  	48,726702  	54,397064  	65,492384  	63,474421  	65,702941  	72,751283  	25,222607  	23,437741  	19,319666  	74,850387  	0,032720  	0,016579  	-3867,452378  	-35492,312223  	-0,021684  	-0,049973  	0,261374  	0,132440  	-2,105063  	9384,059668  	1096,894303  	0,159091  	-0,047928  
63,553000  	9,918746  	65,641747  	1256,818530  	657,183579  	79,917234  	76,128479  	0,004006  	0,008380  	0,003964  	0,004100  	0,004403  	0,000003  	-0,000000  	25,622538  	20,073414  	22,176173  	33,616599  	49,729863  	46,891862  	48,716283  	54,388304  	65,486838  	63,468602  	65,701739  	72,744686  	25,217218  	23,428408  	19,304430  	74,845804  	0,087543  	0,044359  	-10349,095992  	-9720,484092  	-0,013757  	-0,049967  	0,345106  	0,174868  	-2,778640  	9422,016276  	1049,055396  	0,152153  	-0,047923  
64,556000  	9,918746  	65,645666  	57,725912  	1256,670793  	79,913548  	76,126981  	0,004009  	0,008331  	0,003961  	0,003975  	0,004328  	0,000003  	-0,000000  	25,622124  	20,074462  	22,174128  	33,623306  	49,729582  	46,891365  	48,725545  	54,388888  	65,490968  	63,475711  	65,700113  	72,746177  	25,213719  	23,435305  	19,304083  	74,850713  	-0,013638  	-0,006910  	1612,337222  	24476,293699  	-0,018190  	-0,049966  	0,286178  	0,145008  	-2,302842  	9315,917041  	1130,632207  	0,163984  	-0,047922  
65,553000  	9,917675  	65,640721  	1256,818530  	956,927186  	79,915298  	76,130101  	0,004005  	0,008317  	0,003962  	0,004054  	0,004346  	0,000000  	-0,000000  	25,625367  	20,076202  	22,171348  	33,628545  	49,732521  	46,893000  	48,731642  	54,385247  	65,492254  	63,476550  	65,699918  	72,745892  	25,208785  	23,454359  	19,313376  	74,856103  	0,050742  	0,025711  	-5998,514402  	-4420,638455  	-0,012270  	-0,050000  	0,300059  	0,152042  	-2,413669  	9284,184545  	1044,472746  	0,151488  	-0,047951  
66,557000  	9,917186  	65,640596  	657,272221  	-242,047242  	79,919296  	76,136030  	0,004007  	0,008467  	0,003963  	0,004025  	0,004398  	-0,000000  	-0,000000  	25,623976  	20,078362  	22,167720  	33,629019  	49,730280  	46,890441  	48,725725  	54,386361  	65,491750  	63,468729  	65,702082  	72,742039  	25,208799  	23,460359  	19,307048  	74,854291  	0,026764  	0,013561  	-3163,961073  	-32744,313026  	-0,035222  	-0,050000  	0,341229  	0,172903  	-2,743444  	9607,819223  	1086,465068  	0,157578  	-0,047952  
67,553000  	9,917277  	65,641343  	657,272221  	-242,047242  	79,922264  	76,135593  	0,004007  	0,008452  	0,003963  	0,003928  	0,004306  	0,000001  	-0,000000  	25,618330  	20,079489  	22,170378  	33,631182  	49,725749  	46,887343  	48,727845  	54,389371  	65,490453  	63,473762  	65,704477  	72,743518  	25,202538  	23,451723  	19,304111  	74,848467  	-0,051316  	-0,026002  	6066,573547  	-32736,781422  	-0,035214  	-0,049988  	0,268932  	0,136270  	-2,164129  	9576,845816  	1080,314856  	0,156686  	-0,047941  
68,553000  	9,916727  	65,637859  	57,725912  	956,927186  	79,922264  	76,146702  	0,004007  	0,008398  	0,003962  	0,003968  	0,004346  	0,000001  	-0,000001  	25,619095  	20,078572  	22,175808  	33,625846  	49,730002  	46,888347  	48,730980  	54,386373  	65,492219  	63,479904  	65,704401  	72,750030  	25,198236  	23,448615  	19,316828  	74,845151  	-0,019182  	-0,009720  	2267,531843  	21300,586918  	-0,021692  	-0,049990  	0,299961  	0,151992  	-2,406743  	9459,215917  	1074,235255  	0,155805  	-0,047943  
69,554000  	9,917063  	65,633816  	957,045375  	956,927186  	79,924982  	76,146889  	0,004008  	0,008340  	0,003967  	0,003953  	0,004361  	-0,000001  	-0,000000  	25,616950  	20,075054  	22,175560  	33,629994  	49,730546  	46,891345  	48,727089  	54,387861  	65,497087  	63,475845  	65,700801  	72,754087  	25,205904  	23,446982  	19,316108  	74,843623  	-0,031373  	-0,015897  	3708,363550  	-1,917677  	-0,013770  	-0,050017  	0,312138  	0,158162  	-2,506124  	9335,390911  	1098,701943  	0,159353  	-0,047966  
70,556000  	9,917308  	65,633691  	357,499067  	357,439972  	79,928981  	76,154441  	0,004009  	0,008423  	0,003961  	0,004075  	0,004299  	0,000002  	-0,000000  	25,610017  	20,067049  	22,173864  	33,632929  	49,720801  	46,884833  	48,724488  	54,378432  	65,490569  	63,476066  	65,696104  	72,747963  	25,198411  	23,434969  	19,302345  	74,839074  	0,067386  	0,034145  	-7965,221994  	-1,684469  	-0,026840  	-0,049974  	0,262679  	0,133101  	-2,107045  	9514,059264  	1131,140606  	0,164058  	-0,047929  
71,554000  	9,917308  	65,631545  	357,499067  	1256,670793  	79,928169  	76,152412  	0,004006  	0,008357  	0,003961  	0,003973  	0,004365  	0,000000  	-0,000000  	25,613769  	20,067381  	22,166417  	33,622687  	49,728267  	46,883384  	48,719653  	54,374271  	65,488175  	63,472657  	65,694079  	72,748956  	25,208899  	23,439940  	19,308029  	74,844140  	-0,015481  	-0,007844  	1829,842648  	16229,739790  	-0,015674  	-0,049995  	0,315197  	0,159713  	-2,529123  	9371,971536  	1062,881017  	0,154158  	-0,047948  
72,554000  	9,916819  	65,633598  	957,045375  	57,696365  	79,926357  	76,155034  	0,004006  	0,008359  	0,003963  	0,003990  	0,004376  	-0,000001  	-0,000000  	25,610492  	20,067146  	22,155275  	33,620559  	49,720262  	46,880114  	48,717634  	54,374446  	65,485607  	63,470034  	65,694007  	72,743890  	25,218456  	23,446019  	19,307009  	74,841061  	-0,001632  	-0,000827  	192,922172  	-21309,691053  	-0,021698  	-0,050008  	0,323829  	0,164087  	-2,595342  	9376,840888  	1051,406740  	0,152494  	-0,047958  
73,554000  	9,916574  	65,635900  	1256,818530  	57,696365  	79,929200  	76,151976  	0,004010  	0,008328  	0,003960  	0,004049  	0,004351  	0,000001  	-0,000000  	25,618812  	20,076342  	22,174991  	33,641145  	49,728528  	46,892458  	48,734091  	54,382967  	65,492054  	63,485523  	65,699935  	72,756131  	25,230905  	23,457546  	19,319254  	74,844763  	0,046075  	0,023346  	-5446,444445  	-24490,122233  	-0,018197  	-0,049992  	0,304490  	0,154288  	-2,444166  	9308,947282  	1145,121570  	0,166086  	-0,047945  
74,554000  	9,917920  	65,631670  	1256,818530  	1256,670793  	79,929262  	76,147732  	0,004005  	0,008345  	0,003965  	0,003971  	0,004352  	0,000002  	-0,000000  	25,623939  	20,076415  	22,176804  	33,630566  	49,723905  	46,887681  	48,720646  	54,376521  	65,487252  	63,476952  	65,700192  	72,744680  	25,238548  	23,464684  	19,312510  	74,839041  	-0,017214  	-0,008722  	2034,601764  	-1,992451  	-0,011062  	-0,049969  	0,304784  	0,154436  	-2,449311  	9345,516588  	1036,677299  	0,150357  	-0,047925  
75,553000  	9,916635  	65,623645  	1256,818530  	1256,670793  	79,929669  	76,150603  	0,004009  	0,008380  	0,003965  	0,004029  	0,004380  	0,000002  	-0,000000  	25,623685  	20,070184  	22,164426  	33,629301  	49,731948  	46,887893  	48,722539  	54,383434  	65,481470  	63,481577  	65,696223  	72,740340  	25,239222  	23,472538  	19,312576  	74,844125  	0,030207  	0,015306  	-3569,987951  	-1,992460  	-0,011062  	-0,049969  	0,327433  	0,165913  	-2,629606  	9421,462346  	1130,378008  	0,163947  	-0,047925  
76,553000  	9,916757  	65,618793  	57,725912  	1256,670793  	79,932918  	76,146421  	0,004008  	0,008395  	0,003961  	0,003972  	0,004371  	0,000000  	-0,000000  	25,618231  	20,074507  	22,168917  	33,633562  	49,731963  	46,900836  	48,714068  	54,385176  	65,486054  	63,474005  	65,698528  	72,749247  	25,241743  	23,482306  	19,308693  	74,852996  	-0,015793  	-0,008003  	1866,332173  	24489,319696  	-0,018200  	-0,049996  	0,320405  	0,162351  	-2,578223  	9452,439998  	1092,812991  	0,158499  	-0,047948  
77,554000  	9,917094  	65,617953  	1256,818530  	-242,047242  	79,936042  	76,153068  	0,004006  	0,008268  	0,003963  	0,003941  	0,004368  	0,000001  	-0,000000  	25,616325  	20,081561  	22,178097  	33,638599  	49,720797  	46,893628  	48,719393  	54,391086  	65,482214  	63,484016  	65,703799  	72,751156  	25,256318  	23,481134  	19,317281  	74,852569  	-0,040957  	-0,020753  	4839,918081  	-35502,490011  	-0,021690  	-0,049989  	0,318080  	0,161173  	-2,557133  	9178,910899  	1058,030046  	0,153454  	-0,047942  
78,554000  	9,917339  	65,616834  	1256,818530  	357,439972  	79,940041  	76,148574  	0,004009  	0,008457  	0,003962  	0,004021  	0,004375  	0,000004  	-0,000000  	25,615098  	20,065427  	22,167556  	33,637176  	49,720909  	46,879178  	48,711251  	54,377802  	65,482970  	63,470785  	65,689991  	72,735860  	25,252953  	23,456255  	19,306554  	74,845437  	0,023336  	0,011824  	-2757,521084  	-16220,906903  	-0,015662  	-0,049954  	0,322952  	0,163642  	-2,602129  	9588,005779  	1116,425287  	0,161924  	-0,047912  
79,554000  	9,917889  	65,617674  	1256,818530  	1256,670793  	79,942290  	76,148980  	0,004009  	0,008342  	0,003960  	0,003962  	0,004395  	0,000000  	-0,000000  	25,612404  	20,071524  	22,171408  	33,639385  	49,730313  	46,879475  	48,710644  	54,386728  	65,477069  	63,474519  	65,699148  	72,740083  	25,268604  	23,461769  	19,315101  	74,844737  	-0,023984  	-0,012153  	2834,119476  	-1,993373  	-0,011067  	-0,049995  	0,339027  	0,171787  	-2,732981  	9339,500466  	1118,303538  	0,162196  	-0,047947  
80,553000  	9,918991  	65,621468  	1256,818530  	1256,670793  	79,943602  	76,151351  	0,004009  	0,008382  	0,003963  	0,003944  	0,004299  	0,000004  	-0,000000  	25,631030  	20,082457  	22,167480  	33,639452  	49,729729  	46,899271  	48,722173  	54,396301  	65,489608  	63,482547  	65,705676  	72,756271  	25,272667  	23,459630  	19,314512  	74,844169  	-0,039093  	-0,019809  	4619,782418  	-1,991962  	-0,011059  	-0,049955  	0,262792  	0,133159  	-2,117839  	9425,542188  	1123,592297  	0,162963  	-0,047913  
81,556000  	9,917400  	65,621655  	-242,047242  	956,927186  	79,940884  	76,146171  	0,004006  	0,008357  	0,003960  	0,003997  	0,004350  	-0,000000  	-0,000000  	25,632635  	20,083533  	22,178915  	33,642089  	49,736873  	46,900701  	48,722219  	54,392458  	65,492298  	63,479482  	65,704147  	72,752471  	25,269923  	23,446422  	19,320729  	74,862932  	0,004499  	0,002280  	-531,671800  	34194,694726  	-0,026854  	-0,050002  	0,303423  	0,153747  	-2,446873  	9370,969085  	1064,505068  	0,154393  	-0,047953  
82,552000  	9,917339  	65,616740  	357,499067  	357,439972  	79,938135  	76,143301  	0,004005  	0,008377  	0,003963  	0,003975  	0,004353  	0,000003  	-0,000000  	25,629626  	20,085179  	22,173383  	33,640680  	49,732304  	46,892555  	48,727511  	54,384337  	65,488714  	63,480934  	65,698551  	72,744088  	25,278274  	23,460405  	19,312583  	74,860904  	-0,013822  	-0,007004  	1633,360452  	-1,684296  	-0,026837  	-0,049969  	0,306148  	0,155128  	-2,468928  	9415,091793  	1035,900579  	0,150245  	-0,047924  
83,557000  	9,917155  	65,608996  	1256,818530  	1256,670793  	79,937479  	76,146015  	0,004008  	0,008368  	0,003964  	0,004024  	0,004371  	0,000001  	-0,000000  	25,624279  	20,069937  	22,165510  	33,635472  	49,725919  	46,890023  	48,719615  	54,382157  	65,485011  	63,486833  	65,695884  	72,747466  	25,261389  	23,457378  	19,313884  	74,851716  	0,026103  	0,013227  	-3084,132803  	-1,993309  	-0,011067  	-0,049993  	0,319853  	0,162072  	-2,577157  	9395,927077  	1102,296039  	0,159875  	-0,047945  
84,553000  	9,917706  	65,608125  	57,725912  	1256,670793  	79,936854  	76,148824  	0,004007  	0,008316  	0,003963  	0,003941  	0,004338  	0,000000  	-0,000000  	25,622476  	20,073723  	22,169817  	33,626371  	49,728895  	46,890353  	48,715138  	54,374645  	65,486639  	63,475621  	65,698639  	72,746243  	25,264114  	23,463323  	19,317032  	74,846735  	-0,040882  	-0,020715  	4830,064532  	24490,589475  	-0,018201  	-0,049999  	0,294280  	0,149114  	-2,368960  	9282,418052  	1087,354766  	0,157707  	-0,047950  
85,555000  	9,917094  	65,613381  	1256,818530  	-242,047242  	79,936479  	76,148824  	0,004004  	0,008439  	0,003961  	0,003929  	0,004373  	0,000002  	-0,000000  	25,615647  	20,072105  	22,168583  	33,625718  	49,719094  	46,886077  	48,712069  	54,379485  	65,476634  	63,476461  	65,684921  	72,740937  	25,251433  	23,461163  	19,311331  	74,845537  	-0,050885  	-0,025784  	6012,599417  	-35491,797352  	-0,021684  	-0,049972  	0,321804  	0,163061  	-2,590276  	9548,249428  	1019,667126  	0,147890  	-0,047927  
86,552000  	9,916972  	65,622774  	657,272221  	357,439972  	79,937666  	76,159745  	0,004008  	0,008255  	0,003961  	0,004008  	0,004298  	-0,000001  	-0,000000  	25,618576  	20,080107  	22,173228  	33,632400  	49,723791  	46,891068  	48,712336  	54,377200  	65,488124  	63,477681  	65,693669  	72,745164  	25,250697  	23,463031  	19,311760  	74,846649  	0,012925  	0,006549  	-1527,504370  	-7104,859173  	-0,021699  	-0,050010  	0,262093  	0,132804  	-2,104229  	9152,487078  	1100,855576  	0,159666  	-0,047960  
87,552000  	9,918073  	65,627533  	657,272221  	357,439972  	79,937479  	76,158029  	0,004006  	0,008319  	0,003962  	0,003973  	0,004293  	0,000001  	-0,000000  	25,629672  	20,089507  	22,184071  	33,638936  	49,730538  	46,894989  	48,716777  	54,381064  	65,497455  	63,480481  	65,701435  	72,752259  	25,260149  	23,468470  	19,323579  	74,854424  	-0,015476  	-0,007842  	1829,088946  	-7102,323245  	-0,021692  	-0,049990  	0,258072  	0,130767  	-2,072786  	9289,936789  	1065,677210  	0,154563  	-0,047943  
88,553000  	9,919541  	65,623676  	1256,818530  	956,927186  	79,935854  	76,154347  	0,004005  	0,008223  	0,003965  	0,003928  	0,004325  	-0,000001  	-0,000000  	25,630954  	20,076488  	22,177753  	33,634809  	49,724226  	46,888792  	48,720201  	54,376571  	65,488897  	63,471989  	65,694838  	72,752186  	25,251144  	23,439198  	19,316011  	74,849624  	-0,051843  	-0,026269  	6126,630634  	-4421,325393  	-0,012272  	-0,050009  	0,283577  	0,143690  	-2,278870  	9082,179666  	1038,195434  	0,150578  	-0,047959  
89,555000  	9,919847  	65,624205  	1256,818530  	1256,670793  	79,935292  	76,141085  	0,004011  	0,008398  	0,003964  	0,004040  	0,004304  	0,000001  	-0,000000  	25,625963  	20,065967  	22,169947  	33,632357  	49,723243  	46,882917  	48,718509  	54,382289  	65,479775  	63,470905  	65,694316  	72,745192  	25,243799  	23,411191  	19,306902  	74,841880  	0,038921  	0,019722  	-4599,579489  	-1,993115  	-0,011066  	-0,049988  	0,267064  	0,135323  	-2,153373  	9460,802011  	1160,938419  	0,168380  	-0,047941  
90,552000  	9,920704  	65,621717  	1256,818530  	657,183579  	79,935730  	76,136342  	0,004005  	0,008279  	0,003962  	0,004034  	0,004331  	0,000001  	-0,000000  	25,621569  	20,071875  	22,164266  	33,631605  	49,725102  	46,886387  	48,717691  	54,385259  	65,482946  	63,472876  	65,694447  	72,742728  	25,252272  	23,388393  	19,313955  	74,839612  	0,034204  	0,017331  	-4041,848753  	-9723,199889  	-0,013761  	-0,049983  	0,288051  	0,145957  	-2,325764  	9203,327695  	1039,572348  	0,150777  	-0,047937  
91,554000  	9,922172  	65,626102  	1256,818530  	657,183579  	79,936292  	76,142021  	0,004004  	0,008406  	0,003964  	0,004025  	0,004330  	0,000001  	-0,000000  	25,622168  	20,072004  	22,161286  	33,633351  	49,724703  	46,883156  	48,717962  	54,381431  	65,488931  	63,474068  	65,693408  	72,744992  	25,248057  	23,356913  	19,314095  	74,842208  	0,027254  	0,013810  	-3220,779899  	-9723,068123  	-0,013761  	-0,049982  	0,287720  	0,145790  	-2,319970  	9477,380304  	1020,366174  	0,147992  	-0,047936  
92,552000  	9,922294  	65,633629  	1256,818530  	1256,670793  	79,933168  	76,148137  	0,004007  	0,008341  	0,003963  	0,004007  	0,004312  	0,000001  	-0,000000  	25,617064  	20,064985  	22,160162  	33,630372  	49,720680  	46,872719  	48,711009  	54,376231  	65,485261  	63,469535  	65,685194  	72,741944  	25,242149  	23,330925  	19,307821  	74,837442  	0,012258  	0,006211  	-1448,838206  	-1,993275  	-0,011067  	-0,049992  	0,273205  	0,138435  	-2,197564  	9336,287953  	1085,314110  	0,157412  	-0,047945  
93,555000  	9,923120  	65,641871  	1256,818530  	-242,047242  	79,927201  	76,151944  	0,004007  	0,008257  	0,003964  	0,003963  	0,004341  	0,000001  	-0,000000  	25,613523  	20,069127  	22,161356  	33,625943  	49,719344  	46,871761  	48,715879  	54,375854  	65,480171  	63,467222  	65,682567  	72,747116  	25,240376  	23,322062  	19,313235  	74,834809  	-0,023073  	-0,011691  	2727,456616  	-35500,971404  	-0,021689  	-0,049986  	0,296300  	0,150137  	-2,377178  	9155,846740  	1073,656245  	0,155721  	-0,047940  
94,552000  	9,924221  	65,650020  	1256,818530  	357,439972  	79,923951  	76,148699  	0,004008  	0,008339  	0,003964  	0,003975  	0,004315  	0,000001  	-0,000000  	25,615338  	20,069746  	22,164638  	33,623626  	49,718015  	46,875025  	48,723910  	54,374961  	65,475662  	63,463338  	65,688075  	72,751579  	25,228150  	23,316099  	19,311849  	74,834349  	-0,013551  	-0,006866  	1602,001249  	-16229,107427  	-0,015670  	-0,049982  	0,276109  	0,139907  	-2,215188  	9333,130621  	1093,399062  	0,158584  	-0,047936  
95,554000  	9,924038  	65,654313  	357,499067  	1256,670793  	79,925920  	76,150727  	0,004008  	0,008306  	0,003962  	0,003999  	0,004337  	-0,000000  	-0,000000  	25,614660  	20,063449  	22,165449  	33,620036  	49,709922  	46,876667  	48,713758  	54,369241  	65,474216  	63,452153  	65,688641  	72,739900  	25,228706  	23,314715  	19,304591  	74,829625  	0,005504  	0,002789  	-650,750166  	16231,595184  	-0,015676  	-0,050002  	0,292815  	0,148372  	-2,349183  	9261,846933  	1103,023332  	0,159980  	-0,047953  
96,553000  	9,924527  	65,651389  	957,045375  	57,696365  	79,931356  	76,141678  	0,004004  	0,008286  	0,003962  	0,004005  	0,004344  	0,000001  	-0,000000  	25,620791  	20,069684  	22,166309  	33,625207  	49,712207  	46,880656  	48,716658  	54,373248  	65,483796  	63,460089  	65,697389  	72,740475  	25,237932  	23,333567  	19,315720  	74,836859  	0,010631  	0,005387  	-1256,887920  	-21299,970450  	-0,021688  	-0,049982  	0,298419  	0,151211  	-2,403325  	9218,439452  	1020,457968  	0,148005  	-0,047936  
97,572000  	9,925506  	65,651731  	1256,818530  	1256,670793  	79,935667  	76,132442  	0,004007  	0,008313  	0,003961  	0,003898  	0,004380  	-0,000001  	-0,000000  	25,618357  	20,066886  	22,166918  	33,625370  	49,721433  	46,881380  	48,721194  	54,372318  	65,481464  	63,463315  	65,697541  	72,745254  	25,236890  	23,347842  	19,318826  	74,832133  	-0,076002  	-0,038511  	8985,208652  	-1,993961  	-0,011071  	-0,050011  	0,327072  	0,165730  	-2,643491  	9276,040425  	1081,720014  	0,156890  	-0,047961  
98,567000  	9,925873  	65,655339  	1256,818530  	657,183579  	79,935792  	76,132254  	0,004008  	0,008227  	0,003965  	0,003955  	0,004372  	0,000001  	-0,000000  	25,622339  	20,071667  	22,170964  	33,624321  	49,724245  	46,889360  	48,721735  	54,378850  	65,484632  	63,459759  	65,704937  	72,751192  	25,249539  	23,362621  	19,317634  	74,837265  	-0,029933  	-0,015167  	3539,018643  	-9724,459853  	-0,013763  	-0,049990  	0,320599  	0,162450  	-2,591388  	9091,699769  	1091,266612  	0,158275  	-0,047943  
99,553000  	9,925598  	65,657578  	357,499067  	657,183579  	79,938198  	76,125701  	0,004008  	0,008238  	0,003965  	0,004013  	0,004334  	0,000002  	-0,000000  	25,614610  	20,065632  	22,155851  	33,619143  	49,713998  	46,882590  	48,718905  	54,366634  	65,481398  	63,457958  	65,695899  	72,738495  	25,248058  	23,376142  	19,304322  	74,832185  	0,016842  	0,008534  	-1991,337305  	7097,673072  	-0,021688  	-0,049980  	0,290662  	0,147281  	-2,354942  	9114,147742  	1095,199641  	0,158845  	-0,047935  
100,554000  	9,926393  	65,651482  	-242,047242  	57,696365  	79,937573  	76,121895  	0,004008  	0,008333  	0,003962  	0,004061  	0,004340  	0,000001  	-0,000000  	25,624130  	20,067267  	22,173077  	33,628022  	49,733088  	46,885778  	48,730691  	54,373028  	65,488229  	63,464686  	65,701701  	72,748121  	25,248976  	23,400309  	19,316483  	74,837371  	0,055805  	0,028277  	-6597,378079  	27694,905974  	-0,093553  	-0,049991  	0,295307  	0,149634  	-2,394566  	9320,457431  	1088,611641  	0,157890  	-0,047944  
101,557000  	9,926975  	65,634127  	1256,818530  	1256,670793  	79,939541  	76,122612  	0,004008  	0,008380  	0,003962  	0,004098  	0,004325  	-0,000000  	-0,000000  	25,619107  	20,069641  	22,168877  	33,621094  	49,722135  	46,885817  	48,728669  	54,379960  	65,485880  	63,465994  	65,710383  	72,747260  	25,257967  	23,426390  	19,319791  	74,846122  	0,085791  	0,043471  	-10139,065514  	-1,993734  	-0,011069  	-0,050005  	0,283822  	0,143815  	-2,302193  	9420,094853  	1096,851937  	0,159085  	-0,047956  
102,555000  	9,928137  	65,626724  	657,272221  	1256,670793  	79,943103  	76,133471  	0,004006  	0,008284  	0,003963  	0,003961  	0,004409  	0,000001  	-0,000000  	25,625382  	20,077930  	22,173583  	33,630546  	49,727723  	46,892299  	48,730065  	54,378941  	65,488522  	63,458541  	65,708804  	72,749944  	25,253409  	23,449985  	19,325501  	74,848054  	-0,024876  	-0,012605  	2939,474775  	9720,288623  	-0,013762  	-0,049987  	0,350253  	0,177476  	-2,835618  	9214,104930  	1062,831589  	0,154151  	-0,047940  
103,553000  	9,927770  	65,618607  	657,272221  	1256,670793  	79,946258  	76,137153  	0,004007  	0,008228  	0,003960  	0,004062  	0,004403  	-0,000000  	-0,000000  	25,627934  	20,068746  	22,176337  	33,630928  	49,728731  	46,880662  	48,721697  	54,376859  	65,482946  	63,457427  	65,701686  	72,754774  	25,256763  	23,467259  	19,322522  	74,842985  	0,056999  	0,028882  	-6734,323093  	9723,025475  	-0,013766  	-0,050003  	0,345733  	0,175185  	-2,798639  	9094,125601  	1076,099383  	0,156075  	-0,047954  
104,558000  	9,928810  	65,613257  	57,725912  	57,696365  	79,943134  	76,135406  	0,004005  	0,008319  	0,003961  	0,003961  	0,004348  	0,000001  	-0,000000  	25,623477  	20,078945  	22,171922  	33,636004  	49,738941  	46,886495  	48,725787  	54,382501  	65,483615  	63,466274  	65,708925  	72,742241  	25,265985  	23,499335  	19,322668  	74,854726  	-0,024811  	-0,012572  	2931,070073  	-1,524565  	-0,051164  	-0,049983  	0,301848  	0,152949  	-2,442516  	9290,568539  	1034,389505  	0,150026  	-0,047937  
105,554000  	9,928106  	65,612728  	1256,818530  	1256,670793  	79,938385  	76,135749  	0,004005  	0,008255  	0,003959  	0,003955  	0,004400  	-0,000000  	-0,000000  	25,617924  	20,062708  	22,169010  	33,615735  	49,713524  	46,879463  	48,719216  	54,375390  	65,468696  	63,437896  	65,692619  	72,736023  	25,260270  	23,476056  	19,317386  	74,835307  	-0,030020  	-0,015211  	3546,370168  	-1,993580  	-0,011068  	-0,050001  	0,343431  	0,174019  	-2,775283  	9150,871271  	1025,407794  	0,148723  	-0,047952  
106,560000  	9,928779  	65,621748  	1256,818530  	657,183579  	79,937948  	76,135624  	0,004009  	0,008300  	0,003961  	0,003971  	0,004301  	0,000001  	-0,000000  	25,616288  	20,068847  	22,174540  	33,615715  	49,718273  	46,875469  	48,719347  	54,374938  	65,469967  	63,436370  	65,702664  	72,745413  	25,283228  	23,504817  	19,322662  	74,842118  	-0,016762  	-0,008493  	1980,475422  	-9723,191342  	-0,013761  	-0,049983  	0,264571  	0,134060  	-2,137836  	9249,028716  	1115,133107  	0,161736  	-0,047937  
107,554000  	9,929697  	65,633411  	357,499067  	-242,047242  	79,945571  	76,134002  	0,004005  	0,008250  	0,003961  	0,003998  	0,004317  	0,000002  	-0,000000  	25,620569  	20,071768  	22,163497  	33,619926  	49,724495  	46,875199  	48,722783  	54,379064  	65,477648  	63,448889  	65,703312  	72,749327  	25,272116  	23,513264  	19,322479  	74,828428  	0,004727  	0,002395  	-558,666851  	-30928,106712  	-0,051153  	-0,049973  	0,277046  	0,140381  	-2,244083  	9141,552791  	1032,920798  	0,149812  	-0,047928  
108,558000  	9,929636  	65,638139  	957,045375  	956,927186  	79,950757  	76,130444  	0,004007  	0,008305  	0,003961  	0,003981  	0,004402  	-0,000000  	-0,000000  	25,618353  	20,060424  	22,170690  	33,617104  	49,724655  	46,882200  	48,719943  	54,380249  	65,462572  	63,447649  	65,699609  	72,740007  	25,286309  	23,521031  	19,315736  	74,833732  	-0,008756  	-0,004437  	1034,805923  	-1,917151  	-0,013766  	-0,050002  	0,344303  	0,174461  	-2,795263  	9258,671914  	1084,071358  	0,157231  	-0,047953  
109,555000  	9,930554  	65,636366  	1256,818530  	1256,670793  	79,953162  	76,122799  	0,004010  	0,008248  	0,003962  	0,003960  	0,004427  	0,000001  	-0,000000  	25,614700  	20,061951  	22,162434  	33,615854  	49,723990  	46,879728  	48,717800  	54,368971  	65,461509  	63,440883  	65,699103  	72,738132  	25,288196  	23,520842  	19,307034  	74,838947  	-0,025481  	-0,012911  	3011,316653  	-1,993094  	-0,011066  	-0,049987  	0,364636  	0,184764  	-2,968122  	9135,599632  	1141,675757  	0,165586  	-0,047940  
110,557000  	9,931655  	65,628653  	657,272221  	1256,670793  	79,951475  	76,132473  	0,004006  	0,008312  	0,003963  	0,004062  	0,004359  	0,000003  	-0,000000  	25,617071  	20,065186  	22,156979  	33,624881  	49,720472  	46,878219  	48,719509  	54,367552  	65,469093  	63,440760  	65,705680  	72,744595  	25,284967  	23,496175  	19,314582  	74,838642  	0,056951  	0,028857  	-6729,382105  	9715,433631  	-0,013755  	-0,049959  	0,310397  	0,157280  	-2,519128  	9274,881628  	1061,504103  	0,153958  	-0,047916  
111,553000  	9,932297  	65,626973  	657,272221  	1256,670793  	79,950444  	76,143082  	0,004008  	0,008193  	0,003965  	0,004063  	0,004256  	0,000003  	-0,000000  	25,620074  	20,073569  	22,169254  	33,621797  	49,724779  	46,877293  	48,722398  	54,372026  	65,477929  	63,444965  	65,712512  	72,745126  	25,289684  	23,476277  	19,321502  	74,838780  	0,057398  	0,029084  	-6781,901625  	9715,558227  	-0,013756  	-0,049960  	0,228614  	0,115841  	-1,849743  	9018,527199  	1108,432130  	0,160764  	-0,047917  
112,564000  	9,931869  	65,631950  	1256,818530  	1256,670793  	79,950444  	76,141709  	0,004008  	0,008384  	0,003965  	0,003967  	0,004335  	-0,000001  	-0,000000  	25,615161  	20,060348  	22,168783  	33,620288  	49,719606  	46,875621  	48,721541  	54,369191  	65,475807  	63,443487  	65,712635  	72,737462  	25,289036  	23,449241  	19,316400  	74,839493  	-0,020073  	-0,010171  	2371,936365  	-1,993798  	-0,011070  	-0,050007  	0,291595  	0,147753  	-2,360173  	9430,123609  	1088,618702  	0,157891  	-0,047957  
113,553000  	9,932144  	65,633132  	1256,818530  	1256,670793  	79,954756  	76,132130  	0,004007  	0,008279  	0,003963  	0,004064  	0,004367  	0,000001  	-0,000000  	25,619676  	20,062884  	22,174854  	33,619751  	49,724647  	46,876097  	48,727330  	54,369716  	65,473067  	63,441678  	65,718438  	72,746024  	25,295784  	23,425493  	19,319039  	74,839257  	0,058776  	0,029782  	-6945,579871  	-1,993255  	-0,011067  	-0,049991  	0,316937  	0,160594  	-2,574645  	9204,067684  	1068,805274  	0,155017  	-0,047944  
114,556000  	9,932511  	65,631576  	1256,818530  	657,183579  	79,955631  	76,135000  	0,004011  	0,008230  	0,003961  	0,004078  	0,004337  	0,000001  	-0,000000  	25,622263  	20,065039  	22,172868  	33,619397  	49,722998  	46,877188  	48,727913  	54,370953  	65,470211  	63,444273  	65,718172  	72,750269  	25,298388  	23,411987  	19,319728  	74,838060  	0,070006  	0,035473  	-8272,336661  	-9724,095183  	-0,013762  	-0,049988  	0,293139  	0,148536  	-2,380077  	9097,861625  	1169,976619  	0,169691  	-0,047941  
115,554000  	9,932603  	65,626258  	1256,818530  	657,183579  	79,951069  	76,136592  	0,004006  	0,008345  	0,003962  	0,003986  	0,004369  	-0,000001  	-0,000000  	25,615838  	20,064087  	22,163773  	33,621352  	49,718615  	46,871399  	48,727066  	54,374794  	65,461157  	63,436047  	65,716512  	72,743509  	25,289568  	23,400214  	19,314200  	74,841585  	-0,005005  	-0,002536  	591,350922  	-9728,334476  	-0,013768  	-0,050012  	0,318424  	0,161348  	-2,581217  	9346,465980  	1059,830624  	0,153715  	-0,047962  
116,555000  	9,933888  	65,620037  	1256,818530  	57,696365  	79,949820  	76,134782  	0,004009  	0,008338  	0,003962  	0,003975  	0,004372  	0,000001  	-0,000000  	25,613247  	20,067469  	22,165128  	33,624578  	49,715496  	46,865219  	48,724816  	54,372836  	65,462381  	63,428681  	65,715895  	72,739563  	25,294411  	23,400890  	19,313005  	74,843188  	-0,013714  	-0,006949  	1620,193374  	-24488,181511  	-0,018196  	-0,049988  	0,320785  	0,162544  	-2,600734  	9331,560090  	1110,621069  	0,161082  	-0,047941  
117,557000  	9,934255  	65,627595  	-242,047242  	1256,670793  	79,950038  	76,137840  	0,004010  	0,008285  	0,003962  	0,004027  	0,004318  	0,000002  	-0,000000  	25,618821  	20,067631  	22,170747  	33,629900  	49,717216  	46,867314  	48,726863  	54,373939  	65,467995  	63,436603  	65,717156  	72,746167  	25,309591  	23,402172  	19,315868  	74,842756  	0,028668  	0,014526  	-3387,223920  	35493,410353  	-0,021687  	-0,049975  	0,278220  	0,140976  	-2,253963  	9215,804215  	1134,988902  	0,164616  	-0,047930  
118,554000  	9,934072  	65,629461  	357,499067  	1256,670793  	79,950288  	76,139275  	0,004002  	0,008228  	0,003962  	0,003956  	0,004389  	-0,000000  	-0,000000  	25,623532  	20,067694  	22,168623  	33,630873  	49,724461  	46,873239  	48,730069  	54,376733  	65,466690  	63,443260  	65,715480  	72,746104  	25,307756  	23,387583  	19,316915  	74,844734  	-0,029411  	-0,014903  	3475,165091  	16231,191062  	-0,015676  	-0,050000  	0,334528  	0,169508  	-2,709294  	9092,995103  	977,554765  	0,141782  	-0,047952  
119,554000  	9,932970  	65,627409  	1256,818530  	1256,670793  	79,951069  	76,132847  	0,004007  	0,008485  	0,003965  	0,003962  	0,004322  	-0,000000  	-0,000000  	25,624375  	20,072081  	22,168544  	33,627619  	49,722948  	46,873180  	48,730000  	54,376782  	65,465977  	63,437229  	65,714944  	72,742758  	25,303247  	23,359799  	19,318530  	74,841674  	-0,024153  	-0,012238  	2853,774692  	-1,993563  	-0,011068  	-0,050000  	0,281010  	0,142390  	-2,280161  	9647,492095  	1087,721943  	0,157761  	-0,047952  
120,558000  	9,932909  	65,623801  	57,725912  	57,696365  	79,953319  	76,132098  	0,004006  	0,008232  	0,003962  	0,003946  	0,004377  	0,000001  	-0,000000  	25,618014  	20,070397  	22,167650  	33,620384  	49,714906  	46,864351  	48,725538  	54,374922  	65,463122  	63,429494  	65,716914  	72,738586  	25,298468  	23,323152  	19,320180  	74,834066  	-0,037304  	-0,018902  	4407,372391  	-1,524822  	-0,051173  	-0,049992  	0,324893  	0,164626  	-2,638305  	9102,625567  	1045,305955  	0,151609  	-0,047945  
121,554000  	9,931838  	65,626413  	57,725912  	1256,670793  	79,954537  	76,144237  	0,004005  	0,008327  	0,003964  	0,003960  	0,004310  	0,000001  	-0,000000  	25,611593  	20,063193  	22,166101  	33,614486  	49,713855  	46,858213  	48,717891  	54,371335  	65,456513  	63,427374  	65,713877  	72,730826  	25,286680  	23,288391  	19,319234  	74,834362  	-0,026091  	-0,013221  	3082,846412  	24487,411440  	-0,018198  	-0,049992  	0,271717  	0,137681  	-2,200191  	9306,210880  	1040,094868  	0,150853  	-0,047944  
122,555000  	9,931716  	65,630768  	657,272221  	1256,670793  	79,950913  	76,150415  	0,004011  	0,008286  	0,003963  	0,003972  	0,004355  	0,000003  	-0,000000  	25,618519  	20,063111  	22,169400  	33,619141  	49,713897  	46,861317  	48,717088  	54,373249  	65,457917  	63,428205  	65,715750  	72,740144  	25,300341  	23,265187  	19,322359  	74,837521  	-0,015956  	-0,008085  	1885,409817  	9716,639013  	-0,013757  	-0,049966  	0,307257  	0,155689  	-2,481570  	9217,415070  	1154,470458  	0,167442  	-0,047922  
123,554000  	9,930615  	65,629741  	657,272221  	1256,670793  	79,945165  	76,154347  	0,004007  	0,008385  	0,003960  	0,004028  	0,004372  	-0,000000  	-0,000000  	25,618533  	20,065822  	22,153448  	33,614725  	49,713928  	46,860481  	48,713641  	54,366393  	65,456881  	63,426299  	65,717563  	72,740693  	25,312224  	23,243724  	19,325097  	74,834911  	0,029355  	0,014874  	-3468,731516  	9723,149359  	-0,013766  	-0,050003  	0,320870  	0,162587  	-2,584914  	9431,589437  	1077,779924  	0,156319  	-0,047954  
124,558000  	9,930615  	65,620473  	57,725912  	1256,670793  	79,944727  	76,151913  	0,004006  	0,008241  	0,003961  	0,003972  	0,004425  	0,000001  	-0,000000  	25,616624  	20,063569  	22,162799  	33,617387  	49,712437  	46,861647  	48,712583  	54,364042  	65,450455  	63,423312  	65,714308  	72,737764  	25,309648  	23,217967  	19,318447  	74,838373  	-0,015846  	-0,008029  	1872,198077  	24483,126832  	-0,018195  	-0,049982  	0,363035  	0,183953  	-2,926135  	9121,672139  	1065,797248  	0,154581  	-0,047936  
125,554000  	9,930584  	65,599696  	1256,818530  	1256,670793  	79,946289  	76,143956  	0,004013  	0,008183  	0,003963  	0,004006  	0,004370  	0,000001  	-0,000000  	25,623386  	20,065741  	22,167910  	33,618536  	49,718636  	46,864284  	48,720186  	54,374635  	65,457862  	63,429118  	65,724034  	72,744221  	25,317695  	23,191236  	19,321520  	74,843907  	0,011414  	0,005784  	-1348,021566  	-1,992916  	-0,011065  	-0,049982  	0,319481  	0,161883  	-2,581541  	8995,937737  	1197,267745  	0,173649  	-0,047936  
126,554000  	9,930034  	65,592854  	1256,818530  	1256,670793  	79,944477  	76,144518  	0,004006  	0,008273  	0,003962  	0,004010  	0,004358  	-0,000000  	-0,000000  	25,614687  	20,062374  	22,163175  	33,620514  	49,720262  	46,851296  	48,718926  	54,370134  	65,457935  	63,429012  	65,726768  	72,749422  	25,318848  	23,164261  	19,317895  	74,838475  	0,014791  	0,007495  	-1746,691466  	-1,993604  	-0,011069  	-0,050001  	0,309718  	0,156936  	-2,501087  	9190,248431  	1065,938470  	0,154601  	-0,047952  
127,554000  	9,930034  	65,598452  	357,499067  	1256,670793  	79,945040  	76,140680  	0,004009  	0,008390  	0,003965  	0,004015  	0,004312  	-0,000000  	-0,000000  	25,612297  	20,052410  	22,163361  	33,618528  	49,714403  	46,860867  	48,721653  	54,365750  	65,453732  	63,418512  	65,714893  	72,742287  	25,314318  	23,149491  	19,321185  	74,826749  	0,018577  	0,009413  	-2193,986968  	16231,459684  	-0,015676  	-0,050001  	0,273226  	0,138445  	-2,208952  	9442,315736  	1127,384104  	0,163513  	-0,047953  
128,556000  	9,928871  	65,601189  	957,045375  	1256,670793  	79,943103  	76,128635  	0,004009  	0,008313  	0,003962  	0,003962  	0,004368  	0,000000  	-0,000000  	25,628079  	20,070513  	22,163874  	33,628480  	49,721495  	46,864319  	48,725733  	54,376423  	65,463263  	63,429178  	65,721217  	72,736985  	25,327025  	23,138823  	19,318827  	74,844234  	-0,023990  	-0,012156  	2833,407644  	4416,452963  	-0,012270  	-0,049996  	0,317769  	0,161016  	-2,575893  	9276,617701  	1125,195165  	0,163196  	-0,047948  
129,554000  	9,929330  	65,607907  	57,725912  	956,927186  	79,939510  	76,129820  	0,004008  	0,008231  	0,003964  	0,003955  	0,004360  	0,000002  	-0,000000  	25,621768  	20,070824  	22,170302  	33,634666  	49,722145  	46,868315  	48,736626  	54,374703  	65,466703  	63,421367  	65,723781  	72,746170  	25,324471  	23,139407  	19,317567  	74,836977  	-0,030057  	-0,015230  	3550,440891  	21294,252876  	-0,021686  	-0,049973  	0,311064  	0,157619  	-2,518386  	9098,733198  	1091,704400  	0,158338  	-0,047929  
130,559000  	9,927984  	65,611018  	1256,818530  	-242,047242  	79,939510  	76,140555  	0,004010  	0,008245  	0,003964  	0,004012  	0,004370  	0,000001  	-0,000000  	25,619919  	20,059848  	22,160868  	33,626212  	49,732440  	46,861289  	48,720719  	54,372868  	65,454983  	63,426641  	65,727472  	72,745775  	25,341110  	23,124360  	19,319607  	74,837227  	0,016431  	0,008326  	-1941,003601  	-35501,267844  	-0,021689  	-0,049987  	0,319538  	0,161912  	-2,579701  	9131,034482  	1132,842329  	0,164305  	-0,047940  
131,554000  	9,926975  	65,616989  	1256,818530  	-242,047242  	79,942103  	76,140367  	0,004009  	0,008278  	0,003963  	0,004009  	0,004363  	-0,000000  	-0,000000  	25,613537  	20,070809  	22,167867  	33,637025  	49,724599  	46,868825  	48,720339  	54,364824  	65,460867  	63,429839  	65,727364  	72,734255  	25,334773  	23,116393  	19,320190  	74,832868  	0,013598  	0,006890  	-1606,577549  	-35512,282947  	-0,021696  	-0,050004  	0,313876  	0,159043  	-2,535852  	9201,857622  	1114,928335  	0,161707  	-0,047955  
132,554000  	9,925934  	65,623707  	1256,818530  	956,927186  	79,940728  	76,142552  	0,004007  	0,008243  	0,003962  	0,004006  	0,004351  	0,000000  	-0,000000  	25,621552  	20,067966  	22,171076  	33,637345  	49,732715  	46,862791  	48,734264  	54,365139  	65,462471  	63,430367  	65,742623  	72,742407  	25,344059  	23,109506  	19,326188  	74,836294  	0,011441  	0,005797  	-1351,950039  	-4420,365234  	-0,012270  	-0,049997  	0,304513  	0,154299  	-2,457898  	9125,016945  	1070,817685  	0,155309  	-0,047948  
133,557000  	9,924925  	65,626662  	957,045375  	57,696365  	79,939197  	76,143582  	0,004006  	0,008369  	0,003964  	0,004006  	0,004380  	0,000001  	-0,000000  	25,625088  	20,080656  	22,171786  	33,641086  	49,730709  	46,862145  	48,739853  	54,377930  	65,471753  	63,437960  	65,739428  	72,750244  	25,369990  	23,113347  	19,331005  	74,834670  	0,011468  	0,005811  	-1355,248820  	-21301,086057  	-0,021689  	-0,049985  	0,327002  	0,165694  	-2,637641  	9398,180293  	1064,886367  	0,154449  	-0,047939  
134,553000  	9,925414  	65,630208  	357,499067  	657,183579  	79,939635  	76,145017  	0,004010  	0,008336  	0,003965  	0,003975  	0,004332  	0,000002  	-0,000000  	25,636626  	20,075350  	22,169293  	33,648961  	49,726831  	46,868780  	48,739792  	54,378349  	65,472259  	63,427671  	65,739015  	72,753770  	25,361172  	23,101017  	19,336419  	74,833058  	-0,013274  	-0,006726  	1568,743853  	7097,309113  	-0,021687  	-0,049977  	0,289330  	0,146606  	-2,333164  	9326,741675  	1140,644837  	0,165437  	-0,047932  
135,554000  	9,924405  	65,633660  	357,499067  	-242,047242  	79,935136  	76,146952  	0,004006  	0,008213  	0,003960  	0,004053  	0,004348  	0,000002  	-0,000000  	25,625656  	20,084480  	22,179790  	33,639386  	49,731985  	46,866348  	48,741891  	54,375007  	65,466352  	63,428592  	65,737558  	72,752905  	25,368637  	23,100318  	19,333076  	74,839309  	0,049174  	0,024917  	-5811,733244  	-30928,777433  	-0,051154  	-0,049974  	0,301780  	0,152914  	-2,429437  	9060,128570  	1053,680412  	0,152823  	-0,047929  
136,553000  	9,923120  	65,631919  	957,045375  	956,927186  	79,932262  	76,141397  	0,004006  	0,008300  	0,003961  	0,003983  	0,004353  	-0,000000  	-0,000000  	25,608586  	20,066806  	22,163838  	33,626679  	49,718905  	46,853833  	48,723212  	54,368195  	65,451363  	63,419298  	65,728717  	72,744647  	25,356548  	23,080589  	19,315841  	74,819452  	-0,006802  	-0,003446  	803,868193  	-1,917139  	-0,013766  	-0,050002  	0,305962  	0,155033  	-2,464846  	9248,125307  	1046,513402  	0,151784  	-0,047953  
137,556000  	9,922172  	65,628186  	1256,818530  	956,927186  	79,928700  	76,118774  	0,004005  	0,008228  	0,003962  	0,003962  	0,004346  	0,000000  	-0,000000  	25,621453  	20,073075  	22,163033  	33,627841  	49,725668  	46,865029  	48,731728  	54,372301  	65,466633  	63,423853  	65,734077  	72,744013  	25,359769  	23,080711  	19,321777  	74,824054  	-0,024540  	-0,012435  	2900,150798  	-4420,408613  	-0,012270  	-0,049997  	0,300497  	0,152264  	-2,432981  	9093,504464  	1044,282097  	0,151460  	-0,047949  
138,554000  	9,920459  	65,627937  	1256,818530  	-242,047242  	79,926826  	76,116091  	0,004008  	0,008338  	0,003962  	0,004112  	0,004279  	0,000002  	-0,000000  	25,628113  	20,067869  	22,168315  	33,629992  	49,727086  	46,858372  	48,724321  	54,367394  	65,467503  	63,428274  	65,736544  	72,750666  	25,367621  	23,080427  	19,317710  	74,831297  	0,097380  	0,049343  	-11508,817129  	-35494,548528  	-0,021685  	-0,049976  	0,246923  	0,125117  	-1,999636  	9330,321352  	1101,653480  	0,159781  	-0,047931  
139,558000  	9,920826  	65,625045  	1256,818530  	657,183579  	79,928481  	76,120740  	0,004010  	0,008228  	0,003962  	0,004033  	0,004318  	0,000001  	-0,000000  	25,616800  	20,066249  	22,166324  	33,629916  	49,727011  	46,859930  	48,733213  	54,364358  	65,463280  	63,423976  	65,740294  	72,746293  	25,367874  	23,073777  	19,312744  	74,832501  	0,032966  	0,016704  	-3895,802428  	-9725,049594  	-0,013764  	-0,049993  	0,278418  	0,141076  	-2,252921  	9094,240915  	1144,881493  	0,166051  	-0,047946  
140,555000  	9,919235  	65,619260  	1256,818530  	1256,670793  	79,932418  	76,123111  	0,004009  	0,008267  	0,003963  	0,003994  	0,004338  	0,000001  	-0,000000  	25,614061  	20,066536  	22,168617  	33,624717  	49,724410  	46,865783  	48,729445  	54,360252  	65,460913  	63,423114  	65,738378  	72,744308  	25,379847  	23,072393  	19,315954  	74,826363  	0,001486  	0,000753  	-175,615442  	-1,992965  	-0,011065  	-0,049983  	0,293630  	0,148784  	-2,376994  	9178,107240  	1118,437699  	0,162216  	-0,047937  
141,560000  	9,918562  	65,613941  	957,045375  	1256,670793  	79,935854  	76,129571  	0,004008  	0,008314  	0,003965  	0,004021  	0,004329  	-0,000000  	-0,000000  	25,611528  	20,067631  	22,165281  	33,624766  	49,717469  	46,859253  	48,726502  	54,362352  	65,460154  	63,416168  	65,736708  	72,742962  	25,388476  	23,060965  	19,314977  	74,830655  	0,023830  	0,012075  	-2815,768855  	4417,245386  	-0,012272  	-0,050006  	0,287085  	0,145468  	-2,322169  	9279,200586  	1091,203062  	0,158266  	-0,047957  
142,554000  	9,918195  	65,609960  	357,499067  	1256,670793  	79,934355  	76,124453  	0,004009  	0,008205  	0,003967  	0,003969  	0,004364  	0,000001  	-0,000000  	25,617951  	20,071436  	22,167360  	33,634583  	49,725403  	46,864018  	48,733772  	54,365438  	65,461989  	63,418703  	65,741487  	72,742240  	25,387972  	23,063566  	19,321572  	74,829736  	-0,018560  	-0,009405  	2192,883560  	16226,529400  	-0,015671  	-0,049984  	0,314512  	0,159365  	-2,546434  	9043,914612  	1126,790972  	0,163427  	-0,047938  
143,554000  	9,916360  	65,607161  	1256,818530  	357,439972  	79,931481  	76,122269  	0,004007  	0,008401  	0,003963  	0,003940  	0,004365  	0,000000  	-0,000000  	25,625789  	20,076125  	22,175419  	33,640818  	49,730914  	46,869998  	48,734558  	54,366683  	65,461714  	63,418052  	65,746850  	72,744195  	25,394359  	23,070391  	19,322671  	74,826939  	-0,042365  	-0,021467  	5005,409023  	-16233,906719  	-0,015675  	-0,049999  	0,314944  	0,159584  	-2,549471  	9465,782432  	1085,384721  	0,157422  	-0,047950  
144,556000  	9,915503  	65,604548  	57,725912  	-242,047242  	79,929169  	76,121957  	0,004008  	0,008238  	0,003965  	0,003986  	0,004357  	0,000001  	-0,000000  	25,622649  	20,076639  	22,171253  	33,636916  	49,720997  	46,864420  	48,729095  	54,365221  	65,459829  	63,420039  	65,741024  	72,748043  	25,388694  	23,059169  	19,316865  	74,828531  	-0,004686  	-0,002374  	553,637256  	-27692,741713  	-0,093536  	-0,049986  	0,308677  	0,156409  	-2,497427  	9115,314321  	1106,447962  	0,160477  	-0,047939  
145,554000  	9,915350  	65,605575  	957,045375  	-242,047242  	79,931199  	76,120085  	0,004007  	0,008390  	0,003965  	0,003924  	0,004333  	0,000003  	-0,000000  	25,622202  	20,071427  	22,168059  	33,631605  	49,713698  	46,859205  	48,728595  	54,360231  	65,456501  	63,424537  	65,740018  	72,750278  	25,373760  	23,049055  	19,315416  	74,823919  	-0,054576  	-0,027654  	6448,067841  	-34174,300437  	-0,026835  	-0,049968  	0,289680  	0,146783  	-2,346134  	9442,997006  	1086,069647  	0,157521  	-0,047924  
146,555000  	9,913760  	65,608001  	357,499067  	357,439972  	79,931512  	76,126076  	0,004006  	0,008215  	0,003961  	0,004030  	0,004305  	-0,000001  	-0,000000  	25,622543  	20,066932  	22,172609  	33,631879  	49,714600  	46,859339  	48,730428  	54,356971  	65,451661  	63,417668  	65,750206  	72,747673  	25,373363  	23,052336  	19,315592  	74,829190  	0,030643  	0,015527  	-3620,621776  	-1,685453  	-0,026855  	-0,050007  	0,267823  	0,135708  	-2,165882  	9065,491719  	1046,358058  	0,151761  	-0,047957  
147,554000  	9,914127  	65,603335  	1256,818530  	1256,670793  	79,930044  	76,134158  	0,004006  	0,008358  	0,003964  	0,003942  	0,004385  	-0,000000  	-0,000000  	25,620076  	20,068262  	22,170341  	33,636416  	49,718291  	46,861181  	48,732484  	54,358112  	65,450835  	63,415066  	65,750926  	72,746593  	25,369179  	23,054022  	19,319675  	74,839388  	-0,040649  	-0,020597  	4802,465668  	-1,993598  	-0,011069  	-0,050001  	0,330785  	0,167611  	-2,668341  	9373,443024  	1048,426959  	0,152061  	-0,047952  
148,554000  	9,913392  	65,600038  	1256,818530  	1256,670793  	79,931168  	76,130538  	0,004007  	0,008237  	0,003963  	0,003920  	0,004358  	0,000001  	-0,000000  	25,620848  	20,065554  	22,165951  	33,633537  	49,716462  	46,857668  	48,731433  	54,355135  	65,449807  	63,410451  	65,745386  	72,745428  	25,354033  	23,047495  	19,318394  	74,822255  	-0,058105  	-0,029442  	6864,508545  	-1,993068  	-0,011066  	-0,049986  	0,309462  	0,156807  	-2,499458  	9112,273010  	1076,049956  	0,156068  	-0,047940  
149,555000  	9,913362  	65,601780  	57,725912  	956,927186  	79,938604  	76,121083  	0,004006  	0,008296  	0,003964  	0,004079  	0,004348  	0,000001  	-0,000000  	25,610931  	20,059099  	22,161564  	33,624136  	49,707900  	46,856215  	48,722907  	54,349056  	65,445638  	63,409113  	65,741118  	72,739427  	25,347924  	23,045217  	19,309934  	74,814698  	0,070597  	0,035772  	-8340,586331  	21301,616590  	-0,021693  	-0,049993  	0,302063  	0,153058  	-2,450537  	9240,022219  	1060,762689  	0,153851  	-0,047945  
150,553000  	9,913056  	65,600909  	1256,818530  	357,439972  	79,939354  	76,129571  	0,004010  	0,008351  	0,003960  	0,004065  	0,004363  	0,000002  	-0,000000  	25,619112  	20,073437  	22,176274  	33,633968  	49,717058  	46,864406  	48,735099  	54,362401  	65,446232  	63,421974  	65,750301  	72,748977  	25,352949  	23,050475  	19,314151  	74,828757  	0,059323  	0,030059  	-7008,526731  	-16227,142297  	-0,015668  	-0,049976  	0,313897  	0,159054  	-2,541381  	9358,394937  	1136,888336  	0,164892  	-0,047930  
151,554000  	9,912414  	65,598857  	1256,818530  	1256,670793  	79,934948  	76,127699  	0,004010  	0,008351  	0,003964  	0,004034  	0,004348  	0,000002  	-0,000000  	25,618250  	20,071653  	22,176774  	33,626574  	49,714919  	46,863722  	48,730649  	54,353507  	65,441358  	63,414219  	65,748884  	72,747516  	25,341243  	23,045520  	19,315800  	74,827288  	0,034439  	0,017450  	-4068,574029  	-1,992515  	-0,011063  	-0,049971  	0,302036  	0,153044  	-2,443726  	9358,353198  	1133,682599  	0,164427  	-0,047926  
152,553000  	9,913025  	65,587909  	57,725912  	57,696365  	79,929637  	76,131006  	0,004005  	0,008361  	0,003964  	0,003965  	0,004404  	0,000001  	-0,000000  	25,609687  	20,070573  	22,167534  	33,624973  	49,711569  	46,857311  	48,720487  	54,352040  	65,434700  	63,411824  	65,751814  	72,743605  	25,332712  	23,037007  	19,317127  	74,828604  	-0,021546  	-0,010917  	2544,875174  	-1,524654  	-0,051167  	-0,049986  	0,346410  	0,175528  	-2,796403  	9379,295019  	1034,820232  	0,150088  	-0,047940  
153,555000  	9,911098  	65,570740  	1256,818530  	1256,670793  	79,929387  	76,138526  	0,004010  	0,008327  	0,003962  	0,003977  	0,004303  	0,000001  	-0,000000  	25,610930  	20,069486  	22,165274  	33,632785  	49,708334  	46,853645  	48,726991  	54,358510  	65,442485  	63,416224  	65,753367  	72,745908  	25,328195  	23,026104  	19,315256  	74,827121  	-0,012226  	-0,006195  	1443,681852  	-1,992985  	-0,011065  	-0,049984  	0,266603  	0,135090  	-2,147761  	9307,192108  	1145,820619  	0,166187  	-0,047938  
154,554000  	9,912199  	65,562467  	1256,818530  	657,183579  	79,934324  	76,143207  	0,004006  	0,008282  	0,003962  	0,003935  	0,004335  	0,000003  	-0,000000  	25,616072  	20,061384  	22,160548  	33,616432  	49,707567  	46,851488  	48,708555  	54,343989  	65,437117  	63,408128  	65,741565  	72,734889  	25,325455  	23,018367  	19,309034  	74,821723  	-0,045648  	-0,023130  	5389,367113  	-9720,622268  	-0,013757  	-0,049968  	0,291203  	0,147555  	-2,346104  	9210,354050  	1052,748348  	0,152688  	-0,047924  
155,554000  	9,913025  	65,564426  	1256,818530  	-242,047242  	79,939041  	76,139712  	0,004007  	0,008339  	0,003961  	0,003949  	0,004293  	-0,000001  	-0,000000  	25,620294  	20,077201  	22,161685  	33,624009  	49,711638  	46,864190  	48,732543  	54,360041  	65,444384  	63,415812  	65,744046  	72,746309  	25,331421  	23,029864  	19,328643  	74,836257  	-0,034389  	-0,017425  	4060,192043  	-35514,451643  	-0,021697  	-0,050008  	0,257944  	0,130702  	-2,082650  	9332,531414  	1074,609493  	0,155859  	-0,047958  
156,554000  	9,911863  	65,582714  	1256,818530  	956,927186  	79,940728  	76,131849  	0,004007  	0,008306  	0,003962  	0,004015  	0,004352  	0,000001  	-0,000000  	25,622087  	20,080559  	22,179470  	33,629744  	49,725315  	46,861606  	48,721940  	54,358336  	65,446344  	63,417773  	65,748121  	72,752527  	25,341150  	23,034289  	19,327297  	74,833239  	0,018436  	0,009342  	-2177,395541  	-4419,909110  	-0,012268  	-0,049991  	0,305342  	0,154719  	-2,471533  	9261,566784  	1069,617300  	0,155135  	-0,047943  
157,554000  	9,913117  	65,605699  	1256,818530  	956,927186  	79,939072  	76,132254  	0,004006  	0,008238  	0,003961  	0,003967  	0,004432  	0,000001  	-0,000000  	25,620374  	20,062621  	22,180096  	33,629677  	49,704256  	46,856080  	48,726586  	54,350393  	65,446279  	63,404257  	65,748481  	72,741475  	25,348669  	23,046213  	19,324888  	74,827781  	-0,020156  	-0,010213  	2381,480289  	-4419,453634  	-0,012267  	-0,049985  	0,368587  	0,186766  	-2,981842  	9113,928434  	1061,362882  	0,153938  	-0,047939  
158,554000  	9,913117  	65,612231  	1256,818530  	357,439972  	79,937823  	76,136997  	0,004010  	0,008259  	0,003961  	0,004042  	0,004402  	0,000001  	-0,000000  	25,619578  	20,071385  	22,173560  	33,628042  	49,711961  	46,864637  	48,726890  	54,370392  	65,442742  	63,412124  	65,746344  	72,749866  	25,344919  	23,042900  	19,320006  	74,832090  	0,040261  	0,020400  	-4757,472043  	-16231,475569  	-0,015672  	-0,049990  	0,344989  	0,174809  	-2,786547  	9159,447641  	1135,956271  	0,164757  	-0,047943  
159,554000  	9,913209  	65,612137  	1256,818530  	357,439972  	79,934792  	76,137809  	0,004008  	0,008312  	0,003963  	0,004020  	0,004384  	0,000001  	-0,000000  	25,611966  	20,057313  	22,175121  	33,621369  	49,711373  	46,858389  	48,718022  	54,353753  	65,436333  	63,412373  	65,742837  	72,737950  	25,347397  	23,042425  	19,318612  	74,827621  	0,022583  	0,011443  	-2668,492433  	-16231,835783  	-0,015673  	-0,049992  	0,330112  	0,167270  	-2,663686  	9274,868894  	1098,483049  	0,159321  	-0,047944  
160,554000  	9,913760  	65,610022  	1256,818530  	-242,047242  	79,932668  	76,141491  	0,004007  	0,008348  	0,003959  	0,003931  	0,004359  	0,000000  	-0,000000  	25,604097  	20,055947  	22,167669  	33,623129  	49,702870  	46,851337  	48,713364  	54,356114  	65,434723  	63,403607  	65,741133  	72,736068  	25,349424  	23,038707  	19,317460  	74,816557  	-0,049551  	-0,025108  	5854,946098  	-35505,821066  	-0,021692  	-0,049994  	0,310635  	0,157401  	-2,502692  	9351,813566  	1074,214071  	0,155802  	-0,047946  
161,554000  	9,912230  	65,599727  	1256,818530  	57,696365  	79,933011  	76,138994  	0,004007  	0,008273  	0,003963  	0,004009  	0,004319  	0,000003  	-0,000000  	25,610442  	20,063686  	22,182231  	33,628889  	49,705384  	46,858595  	48,730832  	54,360296  	65,429179  	63,415088  	65,747405  	72,749745  	25,359422  	23,046619  	19,321864  	74,829454  	0,013554  	0,006868  	-1601,329491  	-24479,693990  	-0,018190  	-0,049969  	0,278697  	0,141218  	-2,247061  	9190,139484  	1074,807203  	0,155888  	-0,047925  
162,554000  	9,912597  	65,578951  	1256,818530  	1256,670793  	79,932637  	76,138807  	0,004006  	0,008321  	0,003963  	0,003974  	0,004354  	0,000001  	-0,000000  	25,612459  	20,063007  	22,171155  	33,621884  	49,699411  	46,852249  	48,715532  	54,351819  	65,428521  	63,411775  	65,746550  	72,741693  	25,361161  	23,043666  	19,317975  	74,823122  	-0,014099  	-0,007144  	1665,023269  	-1,993087  	-0,011066  	-0,049987  	0,306736  	0,155425  	-2,473010  	9294,076764  	1054,174689  	0,152895  	-0,047940  
163,554000  	9,912414  	65,565608  	1256,818530  	1256,670793  	79,931231  	76,134688  	0,004005  	0,008329  	0,003963  	0,003965  	0,004346  	0,000000  	-0,000000  	25,610294  	20,061017  	22,161501  	33,617796  	49,702384  	46,859173  	48,714757  	54,352272  	65,423343  	63,410863  	65,740276  	72,737190  	25,363972  	23,040458  	19,327746  	74,827184  	-0,022032  	-0,011164  	2601,288082  	-1,993358  	-0,011067  	-0,049994  	0,299915  	0,151969  	-2,419740  	9311,700662  	1044,762251  	0,151530  	-0,047947  
164,554000  	9,911924  	65,567039  	1256,818530  	57,696365  	79,929544  	76,136748  	0,004010  	0,008179  	0,003964  	0,004027  	0,004289  	0,000001  	-0,000000  	25,607702  	20,059024  	22,165508  	33,623353  	49,697953  	46,865533  	48,713356  	54,343694  	65,430990  	63,409852  	65,738234  	72,738320  	25,370283  	23,040903  	19,316454  	74,818808  	0,028450  	0,014416  	-3359,218790  	-24486,463201  	-0,018195  	-0,049984  	0,254827  	0,129123  	-2,053940  	8987,113053  	1133,160078  	0,164351  	-0,047938  
165,555000  	9,912444  	65,573944  	1256,818530  	1256,670793  	79,926669  	76,132442  	0,004006  	0,008361  	0,003960  	0,004013  	0,004308  	0,000002  	-0,000000  	25,619107  	20,058800  	22,165763  	33,626378  	49,696721  	46,862202  	48,711926  	54,347201  	65,428656  	63,414564  	65,737746  	72,739040  	25,380128  	23,047516  	19,310932  	74,815134  	0,016846  	0,008536  	-1989,293473  	-1,992535  	-0,011063  	-0,049971  	0,269957  	0,136789  	-2,176707  	9379,793768  	1052,875447  	0,152707  	-0,047927  
166,553000  	9,912811  	65,580413  	657,272221  	1256,670793  	79,928044  	76,119648  	0,004010  	0,008240  	0,003963  	0,004049  	0,004377  	-0,000000  	-0,000000  	25,626239  	20,064707  	22,165727  	33,634323  	49,702754  	46,863699  	48,720216  	54,351776  	65,436077  	63,416036  	65,740590  	72,749256  	25,389105  	23,065089  	19,313875  	74,826638  	0,046681  	0,023654  	-5513,055380  	9722,728579  	-0,013766  	-0,050001  	0,324675  	0,164515  	-2,627679  	9119,507354  	1150,699834  	0,166895  	-0,047952  
167,557000  	9,913087  	65,588997  	-242,047242  	1256,670793  	79,927138  	76,118368  	0,004008  	0,008198  	0,003963  	0,004004  	0,004372  	0,000001  	-0,000000  	25,623216  	20,066173  	22,171983  	33,631671  	49,703334  	46,867465  	48,729642  	54,352625  	65,437298  	63,421589  	65,744992  	72,747746  	25,397925  	23,076811  	19,321045  	74,828323  	0,009989  	0,005062  	-1179,924075  	35498,649975  	-0,021690  	-0,049984  	0,320897  	0,162601  	-2,597360  	9028,777387  	1103,623525  	0,160067  	-0,047937  
168,553000  	9,912291  	65,595840  	957,045375  	57,696365  	79,924326  	76,117432  	0,004005  	0,008389  	0,003962  	0,004003  	0,004491  	0,000002  	-0,000000  	25,621940  	20,069394  	22,170102  	33,625747  	49,700884  	46,864258  	48,725139  	54,350470  	65,434652  	63,422259  	65,742281  	72,745683  	25,392128  	23,093369  	19,329441  	74,830342  	0,009377  	0,004751  	-1107,679871  	-21298,762786  	-0,021687  	-0,049979  	0,415482  	0,210528  	-3,361279  	9440,371674  	1037,072721  	0,150415  	-0,047933  
169,553000  	9,912108  	65,595560  	957,045375  	1256,670793  	79,926045  	76,117869  	0,004011  	0,008223  	0,003962  	0,004034  	0,004293  	0,000002  	-0,000000  	25,624524  	20,071546  	22,167403  	33,626976  	49,707189  	46,867472  	48,721536  	54,348194  	65,435622  	63,421203  	65,741209  	72,743690  	25,378435  	23,114795  	19,328081  	74,829288  	0,034425  	0,017443  	-4066,723649  	4415,245571  	-0,012266  	-0,049981  	0,258090  	0,130776  	-2,088669  	9083,312287  	1155,346034  	0,167569  	-0,047935  
170,554000  	9,913270  	65,594502  	357,499067  	657,183579  	79,928107  	76,119492  	0,004005  	0,008226  	0,003958  	0,003998  	0,004352  	0,000001  	-0,000000  	25,620472  	20,073367  	22,173099  	33,624814  	49,705272  	46,868925  	48,724504  	54,348877  	65,434903  	63,420376  	65,737727  	72,742037  	25,378504  	23,130390  	19,324812  	74,826670  	0,004662  	0,002362  	-550,722241  	7098,545536  	-0,021691  	-0,049987  	0,305191  	0,154642  	-2,470132  	9088,891915  	1028,211048  	0,149129  	-0,047940  
171,554000  	9,912536  	65,598701  	357,499067  	657,183579  	79,926794  	76,123361  	0,004002  	0,008325  	0,003964  	0,003935  	0,004380  	-0,000000  	-0,000000  	25,617652  	20,074713  	22,177775  	33,622430  	49,700347  	46,866584  	48,722573  	54,354643  	65,437963  	63,422980  	65,741141  	72,748643  	25,379491  	23,149751  	19,330181  	74,829221  	-0,045928  	-0,023272  	5425,862322  	7100,369494  	-0,021696  	-0,050002  	0,327379  	0,165885  	-2,646115  	9302,273235  	978,959923  	0,141986  	-0,047953  
172,557000  	9,912842  	65,601811  	957,045375  	1256,670793  	79,926732  	76,121052  	0,004010  	0,008215  	0,003963  	0,004012  	0,004313  	0,000001  	-0,000000  	25,621212  	20,068004  	22,177602  	33,621582  	49,704892  	46,867941  	48,718959  	54,356024  	65,440144  	63,424391  	65,750998  	72,747301  	25,373164  	23,172468  	19,330923  	74,828147  	0,015988  	0,008101  	-1888,921662  	4415,500440  	-0,012267  	-0,049984  	0,273968  	0,138822  	-2,215715  	9065,771868  	1138,180516  	0,165079  	-0,047938  
173,553000  	9,913178  	65,603273  	957,045375  	1256,670793  	79,924076  	76,119024  	0,004008  	0,008354  	0,003960  	0,004030  	0,004285  	0,000000  	-0,000000  	25,618434  	20,058930  	22,172937  	33,614934  	49,700933  	46,864727  	48,721333  	54,348268  	65,434521  	63,415995  	65,739298  	72,737869  	25,372659  	23,185464  	19,324324  	74,827523  	0,031198  	0,015808  	-3685,955813  	4416,300624  	-0,012269  	-0,049994  	0,252171  	0,127777  	-2,039097  	9365,039979  	1108,594535  	0,160788  	-0,047946  
174,554000  	9,914157  	65,607441  	357,499067  	1256,670793  	79,921765  	76,121208  	0,004005  	0,008204  	0,003963  	0,003986  	0,004314  	-0,000000  	-0,000000  	25,613380  	20,056816  	22,170068  	33,617294  	49,694738  	46,865268  	48,724476  	54,346485  	65,432173  	63,417805  	65,727930  	72,739260  	25,373723  	23,199393  	19,323019  	74,827768  	-0,004427  	-0,002243  	523,073358  	16231,271886  	-0,015676  	-0,050001  	0,274912  	0,139300  	-2,220360  	9041,241880  	1035,032065  	0,150119  	-0,047952  
175,554000  	9,914800  	65,609867  	1256,818530  	357,439972  	79,919234  	76,117151  	0,004009  	0,008264  	0,003961  	0,003983  	0,004347  	0,000000  	-0,000000  	25,611643  	20,060139  	22,175698  	33,625812  	49,695313  	46,865781  	48,721256  	54,347022  	65,430395  	63,423057  	65,735642  	72,741557  	25,383976  	23,223547  	19,323935  	74,820274  	-0,007255  	-0,003676  	857,257060  	-16233,635667  	-0,015674  	-0,049998  	0,301040  	0,152539  	-2,432360  	9171,060369  	1130,385069  	0,163948  	-0,047950  
176,554000  	9,916696  	65,606072  	1256,818530  	-242,047242  	79,918609  	76,113095  	0,004008  	0,008245  	0,003962  	0,004029  	0,004391  	0,000002  	-0,000000  	25,614858  	20,056921  	22,168800  	33,626618  	49,698330  	46,866764  	48,722997  	54,346951  	65,437207  	63,423525  	65,738062  	72,746015  	25,392498  	23,244672  	19,330388  	74,815548  	0,030093  	0,015248  	-3555,360693  	-35491,043250  	-0,021683  	-0,049971  	0,336290  	0,170401  	-2,719624  	9129,423627  	1096,428271  	0,159023  	-0,047926  
177,554000  	9,917828  	65,606166  	1256,818530  	956,927186  	79,918515  	76,106292  	0,004007  	0,008230  	0,003963  	0,003993  	0,004344  	0,000000  	-0,000000  	25,618117  	20,066052  	22,170986  	33,633933  	49,692383  	46,876350  	48,730338  	54,347603  	65,439334  	63,436673  	65,734612  	72,745075  	25,384198  	23,263644  	19,332604  	74,820551  	0,000745  	0,000377  	-88,005793  	-4420,202402  	-0,012269  	-0,049994  	0,298966  	0,151489  	-2,422042  	9098,271943  	1083,562959  	0,157158  	-0,047947  
178,556000  	9,919174  	65,607659  	1256,818530  	357,439972  	79,921140  	76,106979  	0,004007  	0,008306  	0,003961  	0,004040  	0,004455  	-0,000001  	-0,000000  	25,623863  	20,066527  	22,174079  	33,619570  	49,700496  	46,868525  	48,721873  	54,349317  	65,432115  	63,435583  	65,735476  	72,743718  	25,389403  	23,284457  	19,337652  	74,828144  	0,038679  	0,019599  	-4569,674609  	-16237,016689  	-0,015678  	-0,050010  	0,386716  	0,195952  	-3,134528  	9261,687050  	1076,198239  	0,156089  	-0,047960  
179,554000  	9,920275  	65,609058  	1256,818530  	1256,670793  	79,918765  	76,109382  	0,004006  	0,008376  	0,003963  	0,003994  	0,004339  	0,000001  	-0,000000  	25,613308  	20,064648  	22,174465  	33,611770  	49,683102  	46,865713  	48,716978  	54,351665  	65,430124  	63,434290  	65,725688  	72,741728  	25,373546  	23,281377  	19,324158  	74,820597  	0,001574  	0,000797  	-185,938128  	-1,993147  	-0,011066  	-0,049988  	0,294356  	0,149152  	-2,382916  	9412,874657  	1052,776592  	0,152692  	-0,047942  
180,559000  	9,921866  	65,609867  	1256,818530  	57,696365  	79,918140  	76,111067  	0,004008  	0,008285  	0,003963  	0,004008  	0,004306  	0,000001  	-0,000000  	25,616913  	20,072015  	22,171467  	33,619694  	49,694370  	46,864673  	48,724993  	54,343758  	65,437811  	63,437193  	65,728124  	72,748601  	25,379761  	23,279213  	19,327161  	74,808083  	0,013087  	0,006631  	-1546,130344  	-24489,652299  	-0,018197  	-0,049991  	0,268530  	0,136066  	-2,172525  	9215,425732  	1088,159731  	0,157824  	-0,047944  
181,554000  	9,922050  	65,609120  	1256,818530  	1256,670793  	79,917516  	76,116683  	0,004008  	0,008290  	0,003961  	0,004009  	0,004334  	-0,000001  	-0,000000  	25,621758  	20,073168  	22,174890  	33,612584  	49,696456  	46,869726  	48,722060  	54,346893  	65,445008  	63,426398  	65,732960  	72,750505  	25,376493  	23,277298  	19,326704  	74,818454  	0,013924  	0,007055  	-1644,974729  	-1,994000  	-0,011071  	-0,050012  	0,290615  	0,147257  	-2,347353  	9228,008369  	1100,481339  	0,159611  	-0,047962  
182,554000  	9,923763  	65,608872  	1256,818530  	1256,670793  	79,919453  	76,119305  	0,004005  	0,008207  	0,003965  	0,003963  	0,004382  	0,000002  	-0,000000  	25,613816  	20,068078  	22,169675  	33,628289  	49,691148  	46,869099  	48,719483  	54,347002  	65,439095  	63,438989  	65,715918  	72,742290  	25,369799  	23,262385  	19,326428  	74,820765  	-0,023179  	-0,011745  	2738,238513  	-1,992511  	-0,011063  	-0,049971  	0,328736  	0,166573  	-2,654784  	9047,733406  	1038,103640  	0,150564  	-0,047926  
183,553000  	9,924956  	65,606725  	1256,818530  	1256,670793  	79,921827  	76,115716  	0,004007  	0,008321  	0,003964  	0,004015  	0,004333  	0,000001  	-0,000000  	25,614925  	20,056219  	22,173664  	33,614391  	49,699106  	46,863627  	48,714696  	54,337380  	65,431534  	63,441063  	65,717152  	72,739494  	25,353084  	23,236397  	19,316345  	74,820207  	0,018711  	0,009481  	-2210,301164  	-1,992945  	-0,011065  	-0,049983  	0,289651  	0,146768  	-2,342816  	9293,904147  	1071,587345  	0,155421  	-0,047937  
184,557000  	9,925996  	65,602558  	1256,818530  	57,696365  	79,917891  	76,110848  	0,004009  	0,008481  	0,003962  	0,004009  	0,004373  	0,000002  	-0,000000  	25,618270  	20,060025  	22,174268  	33,605983  	49,691027  	46,864303  	48,713419  	54,337536  	65,439002  	63,433040  	65,720650  	72,738477  	25,366424  	23,217604  	19,323080  	74,814034  	0,013538  	0,006860  	-1599,066107  	-24483,948512  	-0,018193  	-0,049978  	0,321605  	0,162960  	-2,601910  	9638,395046  	1118,903731  	0,162283  	-0,047933  
185,554000  	9,927128  	65,598172  	1256,818530  	57,696365  	79,913704  	76,117557  	0,004008  	0,008180  	0,003964  	0,004032  	0,004379  	0,000002  	-0,000000  	25,623829  	20,062007  	22,159425  	33,606920  	49,688430  	46,859869  	48,714313  	54,336945  	65,433977  	63,440154  	65,719984  	72,738036  	25,358083  	23,194729  	19,319749  	74,815025  	0,032339  	0,016386  	-3819,394442  	-24481,819457  	-0,018191  	-0,049973  	0,326045  	0,165209  	-2,630283  	8988,873179  	1088,865840  	0,157927  	-0,047929  
186,557000  	9,928229  	65,592512  	1256,818530  	1256,670793  	79,910393  	76,130413  	0,004011  	0,008337  	0,003962  	0,004088  	0,004334  	0,000001  	-0,000000  	25,618625  	20,061151  	22,172622  	33,612307  	49,706946  	46,870831  	48,713008  	54,341884  	65,438679  	63,441236  	65,712928  	72,745990  	25,372034  	23,173812  	19,326894  	74,817412  	0,078289  	0,039669  	-9245,276414  	-1,993162  	-0,011066  	-0,049989  	0,290718  	0,147309  	-2,335309  	9328,017200  	1166,799127  	0,169230  	-0,047942  
187,553000  	9,928412  	65,590366  	1256,818530  	1256,670793  	79,909549  	76,133378  	0,004010  	0,008258  	0,003962  	0,003960  	0,004384  	0,000000  	-0,000000  	25,620408  	20,072728  	22,165404  	33,622572  	49,704126  	46,864627  	48,714945  	54,334940  	65,433299  	63,434454  	65,716737  	72,747324  	25,364029  	23,160801  	19,328750  	74,813832  	-0,025943  	-0,013145  	3063,504673  	-1,993453  	-0,011068  	-0,049997  	0,330254  	0,167342  	-2,650222  	9157,385435  	1142,812593  	0,165751  	-0,047949  
188,554000  	9,930615  	65,584518  	57,725912  	1256,670793  	79,907925  	76,122581  	0,004008  	0,008243  	0,003962  	0,004022  	0,004385  	0,000002  	-0,000000  	25,624447  	20,076306  	22,178019  	33,628354  	49,717127  	46,883285  	48,725879  	54,336487  	65,428494  	63,442236  	65,723847  	72,745152  	25,377913  	23,146914  	19,334956  	74,815706  	0,024122  	0,012223  	-2848,141090  	24478,440486  	-0,018192  	-0,049971  	0,331266  	0,167855  	-2,664799  	9125,398258  	1098,250033  	0,159288  	-0,047927  
189,554000  	9,931043  	65,577178  	957,045375  	57,696365  	79,910580  	76,115061  	0,004008  	0,008359  	0,003960  	0,003991  	0,004304  	0,000001  	-0,000000  	25,616287  	20,066493  	22,169124  	33,614209  	49,693861  	46,865687  	48,713636  	54,335689  	65,432682  	63,437002  	65,719414  	72,739982  	25,382713  	23,118453  	19,334505  	74,813785  	-0,000420  	-0,000213  	49,530648  	-21302,214146  	-0,021690  	-0,049988  	0,266950  	0,135266  	-2,153194  	9376,408638  	1092,198676  	0,158410  	-0,047941  
190,554000  	9,931410  	65,577489  	357,499067  	1256,670793  	79,910518  	76,097711  	0,004006  	0,008192  	0,003961  	0,004057  	0,004358  	0,000001  	-0,000000  	25,621872  	20,066601  	22,172567  	33,621021  	49,696843  	46,875455  	48,721114  	54,346765  	65,440481  	63,447765  	65,723779  	72,749765  	25,394066  	23,098389  	19,340857  	74,819862  	0,052606  	0,026656  	-6210,362364  	16227,392318  	-0,015672  	-0,049987  	0,309827  	0,156991  	-2,510404  	9015,072740  	1061,080438  	0,153897  	-0,047941  
191,555000  	9,932144  	65,584674  	357,499067  	357,439972  	79,908831  	76,104420  	0,004010  	0,008371  	0,003964  	0,003996  	0,004288  	0,000003  	-0,000000  	25,619606  	20,064361  	22,173453  	33,618895  	49,694286  	46,868899  	48,713654  	54,336779  	65,431213  	63,443934  	65,713241  	72,745290  	25,398982  	23,073740  	19,327941  	74,822216  	0,003335  	0,001690  	-393,785694  	-1,684213  	-0,026836  	-0,049966  	0,254521  	0,128967  	-2,057742  	9402,215566  	1143,645802  	0,165872  	-0,047922  
192,553000  	9,933368  	65,592512  	957,045375  	956,927186  	79,905706  	76,101487  	0,004007  	0,008228  	0,003959  	0,004026  	0,004330  	-0,000000  	-0,000000  	25,626424  	20,062243  	22,163891  	33,615731  	49,691381  	46,861402  	48,714986  	54,337699  	65,423096  	63,439973  	65,705618  	72,737318  	25,392686  	23,060702  	19,325098  	74,829281  	0,027527  	0,013948  	-3250,403602  	-1,917147  	-0,013766  	-0,050002  	0,287291  	0,145572  	-2,322566  	9093,856065  	1068,289814  	0,154942  	-0,047953  
193,556000  	9,935326  	65,596337  	-242,047242  	57,696365  	79,901395  	76,093343  	0,004010  	0,008385  	0,003966  	0,004020  	0,004335  	0,000002  	-0,000000  	25,622416  	20,061106  	22,163612  	33,609525  	49,689429  	46,864010  	48,713090  	54,337995  	65,419868  	63,443065  	65,705485  	72,735762  	25,387237  	23,057737  	19,325460  	74,823322  	0,022561  	0,011432  	-2664,063156  	27689,088492  	-0,093533  	-0,049979  	0,291686  	0,147799  	-2,360466  	9432,042910  	1132,023242  	0,164186  	-0,047934  
194,554000  	9,934959  	65,599634  	357,499067  	1256,670793  	79,898458  	76,089473  	0,004009  	0,008231  	0,003963  	0,004076  	0,004370  	0,000003  	-0,000000  	25,614725  	20,059029  	22,162804  	33,605174  	49,682572  	46,861241  	48,709114  	54,333426  	65,418601  	63,443178  	65,703828  	72,738404  	25,383097  	23,057895  	19,324525  	74,817138  	0,068278  	0,034597  	-8063,133769  	16220,454500  	-0,015665  	-0,049963  	0,319219  	0,161750  	-2,583907  	9099,144224  	1112,259242  	0,161320  	-0,047920  
195,559000  	9,935509  	65,602620  	1256,818530  	357,439972  	79,898208  	76,096526  	0,004010  	0,008261  	0,003963  	0,003958  	0,004335  	0,000002  	-0,000000  	25,617918  	20,061515  	22,159269  	33,612110  	49,684991  	46,865587  	48,712867  	54,334164  	65,419084  	63,446127  	65,704567  	72,743518  	25,382289  	23,061596  	19,326467  	74,819827  	-0,027653  	-0,014012  	3265,784404  	-16228,285948  	-0,015669  	-0,049979  	0,291372  	0,147640  	-2,353986  	9164,367929  	1151,222355  	0,166971  	-0,047934  
196,554000  	9,935142  	65,598079  	57,725912  	-242,047242  	79,900770  	76,102891  	0,004007  	0,008311  	0,003961  	0,004044  	0,004356  	0,000003  	-0,000000  	25,616338  	20,062040  	22,163516  	33,616312  	49,688703  	46,867945  	48,711644  	54,332680  	65,412983  	63,448738  	65,707425  	72,744118  	25,382907  	23,062658  	19,324863  	74,824937  	0,042547  	0,021559  	-5024,305920  	-27682,964590  	-0,093503  	-0,049966  	0,308263  	0,156199  	-2,487961  	9273,067028  	1078,267139  	0,156389  	-0,047922  
197,554000  	9,935968  	65,583523  	1256,818530  	57,696365  	79,898177  	76,091751  	0,004009  	0,008326  	0,003960  	0,003977  	0,004414  	0,000001  	-0,000000  	25,613626  	20,059370  	22,164965  	33,613957  	49,684871  	46,860045  	48,705336  	54,327490  	65,408283  	63,443910  	65,706468  	72,738901  	25,377421  	23,061162  	19,323770  	74,822012  	-0,011755  	-0,005956  	1387,721414  	-24488,285542  	-0,018196  	-0,049988  	0,353848  	0,179298  	-2,862294  	9303,763824  	1115,450856  	0,161782  	-0,047941  
198,557000  	9,936274  	65,575250  	1256,818530  	1256,670793  	79,898490  	76,095745  	0,004008  	0,008243  	0,003961  	0,003949  	0,004405  	-0,000001  	-0,000000  	25,621493  	20,059807  	22,161936  	33,612443  	49,683684  	46,860526  	48,710334  	54,324794  	65,411748  	63,440454  	65,705735  	72,735968  	25,371631  	23,061091  	19,328779  	74,816770  	-0,034389  	-0,017425  	4059,177402  	-1,993824  	-0,011070  	-0,050007  	0,347024  	0,175839  	-2,804377  	9125,556726  	1096,152888  	0,158984  	-0,047958  
199,553000  	9,935356  	65,566199  	1256,818530  	1256,670793  	79,900802  	76,097337  	0,004004  	0,008187  	0,003962  	0,004016  	0,004387  	0,000001  	-0,000000  	25,621344  	20,060186  	22,161881  	33,605250  	49,680272  	46,862171  	48,715636  	54,326956  	65,410781  	63,437603  	65,708406  	72,733238  	25,370700  	23,057052  	19,330875  	74,818014  	0,019455  	0,009858  	-2296,103295  	-1,993313  	-0,011067  	-0,049993  	0,333141  	0,168805  	-2,692701  	9004,414356  	1007,105441  	0,146068  	-0,047946  
200,555000  	9,936396  	65,561721  	57,725912  	1256,670793  	79,902176  	76,101643  	0,004010  	0,008351  	0,003963  	0,004020  	0,004313  	0,000001  	-0,000000  	25,613494  	20,062675  	22,158269  	33,604678  	49,677613  	46,859246  	48,707799  	54,332083  	65,411869  	63,436541  	65,710010  	72,732621  	25,366227  	23,047320  	19,330458  	74,814175  	0,022959  	0,011634  	-2709,414770  	24486,473454  	-0,018198  	-0,049989  	0,274513  	0,139098  	-2,217111  	9358,275379  	1134,332220  	0,164521  	-0,047942  
201,553000  	9,935418  	65,567910  	-242,047242  	1256,670793  	79,897334  	76,101081  	0,004008  	0,008370  	0,003963  	0,004046  	0,004449  	0,000001  	-0,000000  	25,619687  	20,064387  	22,163302  	33,617985  	49,687429  	46,866345  	48,708483  	54,328600  	65,415186  	63,447006  	65,709342  	72,743168  	25,363824  	23,035799  	19,331760  	74,813355  	0,044027  	0,022309  	-5196,307786  	35499,820114  	-0,021691  	-0,049986  	0,381972  	0,193548  	-3,081536  	9399,358899  	1098,716065  	0,159355  	-0,047939  
202,553000  	9,935601  	65,570211  	-242,047242  	657,183579  	79,894959  	76,093530  	0,004008  	0,008220  	0,003963  	0,003970  	0,004384  	0,000001  	-0,000000  	25,622316  	20,062136  	22,169875  	33,608126  	49,687182  	46,866970  	48,709758  	54,325977  	65,404725  	63,443102  	65,702592  	72,739540  	25,367280  	23,026008  	19,325944  	74,809083  	-0,017558  	-0,008897  	2072,377330  	32735,569186  	-0,035216  	-0,049986  	0,330554  	0,167494  	-2,670360  	9075,052854  	1104,075435  	0,160133  	-0,047940  
203,555000  	9,935234  	65,570211  	657,272221  	657,183579  	79,895022  	76,091689  	0,004006  	0,008311  	0,003959  	0,003965  	0,004325  	0,000000  	-0,000000  	25,615238  	20,067746  	22,163888  	33,602796  	49,682113  	46,859636  	48,713195  	54,327729  	65,409113  	63,447771  	65,698422  	72,732959  	25,350961  	23,013481  	19,328537  	74,817073  	-0,021945  	-0,011120  	2590,142341  	-1,810506  	-0,018199  	-0,049995  	0,283990  	0,143900  	-2,295341  	9271,251722  	1058,178328  	0,153476  	-0,047947  
204,553000  	9,934806  	65,575996  	57,725912  	57,696365  	79,897084  	76,091252  	0,004010  	0,008209  	0,003962  	0,004120  	0,004320  	0,000000  	-0,000000  	25,618348  	20,065201  	22,163398  	33,620067  	49,687739  	46,858273  	48,725821  	54,336869  	65,413693  	63,452605  	65,711871  	72,750044  	25,339237  	23,003211  	19,329769  	74,815541  	0,103988  	0,052691  	-12275,026082  	-1,524966  	-0,051178  	-0,049998  	0,279718  	0,141735  	-2,262294  	9053,186401  	1138,604181  	0,165141  	-0,047949  
205,554000  	9,935295  	65,591143  	957,045375  	956,927186  	79,897053  	76,083670  	0,004007  	0,008313  	0,003961  	0,003907  	0,004406  	0,000001  	-0,000001  	25,624771  	20,059034  	22,160574  	33,606509  	49,679835  	46,859770  	48,715281  	54,326853  	65,413026  	63,443598  	65,700973  	72,738004  	25,331894  	22,980157  	19,327727  	74,816712  	-0,068832  	-0,034878  	8127,336248  	-1,916702  	-0,013763  	-0,049989  	0,347739  	0,176202  	-2,818012  	9277,551530  	1072,724181  	0,155585  	-0,047942  
206,554000  	9,934683  	65,595809  	-242,047242  	357,439972  	79,897490  	76,088662  	0,004008  	0,008179  	0,003961  	0,003898  	0,004444  	0,000002  	-0,000000  	25,624598  	20,057062  	22,160925  	33,606271  	49,686137  	46,855891  	48,710648  	54,334560  	65,412757  	63,442002  	65,702129  	72,741092  	25,329431  	22,961569  	19,321580  	74,813141  	-0,075881  	-0,038449  	8960,425259  	30932,202173  	-0,051165  	-0,049981  	0,378183  	0,191628  	-3,061064  	8987,293452  	1096,421210  	0,159022  	-0,047935  
207,555000  	9,934224  	65,595995  	657,272221  	1256,670793  	79,898427  	76,089879  	0,004006  	0,008292  	0,003963  	0,004029  	0,004415  	-0,000000  	-0,000000  	25,624095  	20,066537  	22,164860  	33,619435  	49,696164  	46,865368  	48,717971  	54,349266  	65,409517  	63,443746  	65,715705  	72,747358  	25,334596  	22,959175  	19,343147  	74,818215  	0,030035  	0,015219  	-3546,781058  	9723,625674  	-0,013767  	-0,050006  	0,355213  	0,179989  	-2,874932  	9231,776227  	1047,890316  	0,151984  	-0,047957  
208,553000  	9,935020  	65,588220  	1256,818530  	1256,670793  	79,900864  	76,080892  	0,004008  	0,008229  	0,003962  	0,003996  	0,004405  	0,000001  	-0,000000  	25,621433  	20,068088  	22,163008  	33,612771  	49,678320  	46,862322  	48,708423  	54,325208  	65,406648  	63,436786  	65,693523  	72,723053  	25,324383  	22,950936  	19,331767  	74,809808  	0,003638  	0,001843  	-429,518679  	-1,993168  	-0,011066  	-0,049989  	0,346916  	0,175785  	-2,816199  	9096,455929  	1105,925441  	0,160401  	-0,047942  
209,559000  	9,934408  	65,581035  	1256,818530  	956,927186  	79,905613  	76,084606  	0,004011  	0,008279  	0,003963  	0,003983  	0,004320  	0,000001  	-0,000000  	25,614658  	20,058035  	22,165060  	33,607480  	49,676711  	46,851828  	48,711271  	54,323828  	65,409755  	63,441016  	65,703182  	72,738071  	25,316799  	22,938715  	19,327620  	74,804016  	-0,006949  	-0,003521  	820,408398  	-4419,235445  	-0,012266  	-0,049982  	0,279854  	0,141804  	-2,272418  	9202,897568  	1157,746805  	0,167917  	-0,047936  
210,553000  	9,935754  	65,585451  	1256,818530  	-242,047242  	79,908424  	76,089286  	0,004008  	0,008277  	0,003964  	0,004052  	0,004375  	0,000000  	-0,000000  	25,622339  	20,059082  	22,176162  	33,609020  	49,683431  	46,872177  	48,714894  	54,340685  	65,413199  	63,447044  	65,704431  	72,741467  	25,332031  	22,941556  	19,337369  	74,811708  	0,048697  	0,024675  	-5749,239152  	-35506,757193  	-0,021693  	-0,049995  	0,323626  	0,163983  	-2,626562  	9199,666662  	1090,892374  	0,158221  	-0,047948  
211,557000  	9,935479  	65,588997  	1256,818530  	-242,047242  	79,907737  	76,090035  	0,004010  	0,008226  	0,003962  	0,004002  	0,004361  	0,000001  	-0,000000  	25,611389  	20,056752  	22,154235  	33,605455  	49,683454  	46,861134  	48,706703  	54,326221  	65,408759  	63,434665  	65,694872  	72,735096  	25,328925  	22,914540  	19,323352  	74,795842  	0,007955  	0,004031  	-939,226339  	-35501,878928  	-0,021690  	-0,049988  	0,312319  	0,158254  	-2,533844  	9088,809851  	1140,913159  	0,165475  	-0,047941  
212,553000  	9,935295  	65,587691  	1256,818530  	956,927186  	79,907237  	76,088288  	0,004008  	0,008304  	0,003962  	0,003961  	0,004339  	0,000001  	-0,000000  	25,619399  	20,051309  	22,155668  	33,597208  	49,676996  	46,856580  	48,699680  	54,324230  	65,398622  	63,439013  	65,689564  	72,721989  	25,311416  	22,920582  	19,321142  	74,797844  	-0,024812  	-0,012572  	2929,442891  	-4419,738185  	-0,012268  	-0,049989  	0,294998  	0,149478  	-2,394099  	9256,248204  	1089,402483  	0,158004  	-0,047942  
213,555000  	9,936090  	65,590148  	57,725912  	956,927186  	79,905831  	76,096994  	0,004007  	0,008247  	0,003962  	0,003985  	0,004353  	0,000002  	-0,000000  	25,611040  	20,059839  	22,161395  	33,606718  	49,671969  	46,850116  	48,698537  	54,326050  	65,405596  	63,429232  	65,696236  	72,725485  	25,309401  	22,945739  	19,320953  	74,793553  	-0,005347  	-0,002709  	631,301701  	21296,265416  	-0,021688  	-0,049979  	0,306119  	0,155113  	-2,477777  	9135,254398  	1086,916978  	0,157644  	-0,047933  
214,554000  	9,934806  	65,591827  	1256,818530  	357,439972  	79,904457  	76,098991  	0,004006  	0,008438  	0,003965  	0,003935  	0,004340  	-0,000000  	-0,000000  	25,612749  	20,056812  	22,154518  	33,611006  	49,672335  	46,854253  	48,706103  	54,330629  	65,410117  	63,430170  	65,692106  	72,731349  	25,308212  	22,964402  	19,328213  	74,800740  	-0,046214  	-0,023417  	5456,853355  	-16235,762477  	-0,015676  	-0,050005  	0,295527  	0,149746  	-2,389933  	9546,026633  	1051,611512  	0,152523  	-0,047956  
215,556000  	9,934622  	65,586696  	1256,818530  	1256,670793  	79,904800  	76,099116  	0,004007  	0,008266  	0,003962  	0,003996  	0,004339  	0,000002  	-0,000000  	25,624883  	20,067977  	22,167876  	33,620479  	49,684327  	46,857501  	48,717315  	54,335312  	65,414635  	63,445593  	65,699062  	72,740553  	25,312624  	22,985830  	19,340771  	74,815681  	0,003795  	0,001923  	-448,079629  	-1,992759  	-0,011064  	-0,049978  	0,294468  	0,149209  	-2,381500  	9174,973961  	1086,712207  	0,157614  	-0,047932  
216,555000  	9,935050  	65,586447  	1256,818530  	1256,670793  	79,908174  	76,099365  	0,004009  	0,008317  	0,003965  	0,004039  	0,004335  	0,000001  	-0,000000  	25,623124  	20,065042  	22,163028  	33,621777  	49,677752  	46,850292  	48,713423  	54,331403  	65,410314  	63,440840  	65,702664  	72,734377  	25,303326  	23,005961  	19,332315  	74,810901  	0,038386  	0,019451  	-4532,085138  	-1,993273  	-0,011067  	-0,049992  	0,291676  	0,147795  	-2,360864  	9286,033809  	1111,129467  	0,161156  	-0,047945  
217,553000  	9,934867  	65,591174  	-242,047242  	1256,670793  	79,905300  	76,105075  	0,004007  	0,008333  	0,003961  	0,003924  	0,004335  	0,000001  	-0,000000  	25,618154  	20,054422  	22,158977  	33,610330  	49,674403  	46,854861  	48,705309  	54,322581  	65,393727  	63,429901  	65,694048  	72,729162  	25,293480  	23,017241  	19,324233  	74,798017  	-0,054614  	-0,027673  	6448,545213  	35501,780747  	-0,021692  	-0,049989  	0,291316  	0,147612  	-2,352633  	9319,580905  	1074,821325  	0,155890  	-0,047942  
218,553000  	9,935479  	65,595031  	357,499067  	1256,670793  	79,905113  	76,109506  	0,004007  	0,008321  	0,003963  	0,004002  	0,004397  	0,000000  	-0,000000  	25,615460  	20,057795  	22,161000  	33,613210  	49,675078  	46,853231  	48,706790  	54,327071  	65,390597  	63,429136  	65,689710  	72,729914  	25,296172  	23,044784  	19,328127  	74,797623  	0,007925  	0,004016  	-935,783154  	16229,235826  	-0,015674  	-0,049994  	0,340295  	0,172430  	-2,744843  	9294,811093  	1086,514496  	0,157586  	-0,047946  
219,555000  	9,935295  	65,598763  	1256,818530  	1256,670793  	79,907081  	76,109975  	0,004008  	0,008216  	0,003960  	0,004027  	0,004326  	0,000001  	-0,000000  	25,615145  	20,061675  	22,156193  	33,611336  	49,671305  	46,847059  	48,704068  	54,332574  	65,391934  	63,429640  	65,693892  	72,730627  	25,285978  	23,075910  	19,330897  	74,795544  	0,028748  	0,014567  	-3394,818804  	-1,993230  	-0,011066  	-0,049991  	0,284221  	0,144017  	-2,293454  	9068,281179  	1108,615718  	0,160791  	-0,047944  
220,554000  	9,934806  	65,594284  	1256,818530  	1256,670793  	79,909518  	76,110786  	0,004007  	0,008337  	0,003962  	0,003984  	0,004325  	-0,000000  	-0,000000  	25,617395  	20,056041  	22,155878  	33,609597  	49,667080  	46,853410  	48,701646  	54,326614  	65,392651  	63,431936  	65,690763  	72,726678  	25,276466  	23,097230  	19,327233  	74,796213  	-0,006291  	-0,003188  	742,858584  	-1,993587  	-0,011068  	-0,050001  	0,283363  	0,143582  	-2,287508  	9329,403794  	1075,598046  	0,156002  	-0,047952  
221,554000  	9,935112  	65,589806  	957,045375  	57,696365  	79,908706  	76,102298  	0,004008  	0,008261  	0,003967  	0,003988  	0,004359  	0,000001  	-0,000000  	25,618099  	20,059992  	22,161316  	33,608718  	49,669842  	46,857042  	48,700132  	54,327180  	65,398493  	63,433567  	65,690342  	72,726418  	25,285689  	23,123939  	19,331228  	74,798853  	-0,003218  	-0,001630  	379,917286  	-21303,900819  	-0,021692  	-0,049992  	0,310822  	0,157496  	-2,514244  	9163,390946  	1092,862419  	0,158506  	-0,047945  
222,553000  	9,934622  	65,587318  	-242,047242  	657,183579  	79,910643  	76,107478  	0,004007  	0,008372  	0,003961  	0,004025  	0,004393  	0,000002  	-0,000000  	25,619263  	20,062830  	22,159264  	33,606138  	49,667188  	46,847543  	48,702790  	54,327775  	65,396827  	63,430179  	65,690186  	72,729485  	25,281545  	23,146957  	19,334962  	74,796443  	0,027208  	0,013787  	-3212,384890  	32729,169451  	-0,035210  	-0,049975  	0,337128  	0,170825  	-2,724714  	9404,572069  	1072,639448  	0,155573  	-0,047930  
223,553000  	9,936090  	65,579293  	657,272221  	657,183579  	79,909737  	76,115466  	0,004007  	0,008204  	0,003962  	0,004037  	0,004329  	0,000001  	-0,000000  	25,621885  	20,062703  	22,161928  	33,609103  	49,670042  	46,850578  	48,704239  	54,322851  	65,392284  	63,428870  	65,687644  	72,728700  	25,268505  	23,161820  	19,333240  	74,796669  	0,036919  	0,018707  	-4358,170234  	-1,810143  	-0,018195  	-0,049984  	0,286860  	0,145354  	-2,313023  	9042,363182  	1082,193107  	0,156959  	-0,047938  
224,555000  	9,935112  	65,573819  	1256,818530  	1256,670793  	79,907925  	76,116091  	0,004009  	0,008360  	0,003961  	0,003980  	0,004410  	0,000000  	-0,000000  	25,623534  	20,067975  	22,166497  	33,612105  	49,682629  	46,866239  	48,703344  	54,327388  	65,401783  	63,432815  	65,692152  	72,733365  	25,268275  	23,183031  	19,334845  	74,799400  	-0,009653  	-0,004891  	1139,442885  	-1,993523  	-0,011068  	-0,049999  	0,350866  	0,177786  	-2,827300  	9377,832728  	1118,395332  	0,162210  	-0,047951  
225,553000  	9,936029  	65,569994  	1256,818530  	1256,670793  	79,903457  	76,104514  	0,004011  	0,008245  	0,003962  	0,003992  	0,004327  	0,000000  	-0,000000  	25,622328  	20,067097  	22,161189  	33,613936  	49,683027  	46,865788  	48,708153  	54,330729  	65,406910  	63,434663  	65,695932  	72,741651  	25,268873  	23,201817  	19,336698  	74,798933  	-0,000051  	-0,000026  	5,995731  	-1,993409  	-0,011067  	-0,049996  	0,285202  	0,144514  	-2,302477  	9130,288833  	1161,644529  	0,168482  	-0,047948  
226,553000  	9,935785  	65,584176  	1256,818530  	1256,670793  	79,897084  	76,095465  	0,004004  	0,008213  	0,003964  	0,004007  	0,004338  	0,000002  	-0,000000  	25,618454  	20,069579  	22,166908  	33,618716  	49,683409  	46,854893  	48,709922  	54,328301  	65,401124  	63,435043  	65,698497  	72,738843  	25,277417  	23,211707  	19,338091  	74,801566  	0,012145  	0,006154  	-1433,805312  	-1,992605  	-0,011063  	-0,049973  	0,294082  	0,149014  	-2,375840  	9060,208511  	1002,607524  	0,145416  	-0,047928  
227,555000  	9,935050  	65,593134  	357,499067  	1256,670793  	79,897365  	76,095028  	0,004009  	0,008246  	0,003963  	0,004046  	0,004326  	0,000001  	-0,000000  	25,623553  	20,071339  	22,170996  	33,616189  	49,682713  	46,852170  	48,714549  	54,334792  	65,408785  	63,438072  	65,702365  	72,739914  	25,277450  	23,222654  	19,337077  	74,805259  	0,043628  	0,022106  	-5151,516418  	16225,931538  	-0,015671  	-0,049982  	0,284598  	0,144208  	-2,299657  	9132,250581  	1123,895924  	0,163007  	-0,047936  
228,553000  	9,935662  	65,593383  	957,045375  	1256,670793  	79,899239  	76,096338  	0,004009  	0,008265  	0,003962  	0,004021  	0,004367  	-0,000000  	-0,000000  	25,629572  	20,073385  	22,168397  	33,613454  	49,679472  	46,859868  	48,705972  	54,333235  	65,410354  	63,435177  	65,700216  	72,742010  	25,264335  	23,232858  	19,336967  	74,804831  	0,023314  	0,011813  	-2752,873011  	4417,252501  	-0,012272  	-0,050006  	0,316771  	0,160510  	-2,560002  	9174,009712  	1116,397043  	0,161920  	-0,047957  
229,555000  	9,934133  	65,597861  	1256,818530  	1256,670793  	79,900864  	76,095090  	0,004005  	0,008368  	0,003962  	0,003924  	0,004366  	0,000000  	-0,000000  	25,621467  	20,077481  	22,165338  	33,619469  	49,676847  	46,852765  	48,699014  	54,324865  	65,407561  	63,436399  	65,689169  	72,732801  	25,271707  	23,230688  	19,330738  	74,800402  	-0,055148  	-0,027944  	6512,530587  	-1,993446  	-0,011068  	-0,049997  	0,316161  	0,160201  	-2,557003  	9395,133323  	1039,762997  	0,150805  	-0,047949  
230,553000  	9,934010  	65,609369  	657,272221  	657,183579  	79,903238  	76,087414  	0,004008  	0,008155  	0,003961  	0,004034  	0,004410  	-0,000000  	-0,000000  	25,617821  	20,071815  	22,169161  	33,618859  	49,669202  	46,857113  	48,703501  	54,331251  	65,409831  	63,439782  	65,695248  	72,735723  	25,277042  	23,239988  	19,327905  	74,792369  	0,034294  	0,017377  	-4050,711381  	-1,810858  	-0,018202  	-0,050006  	0,350804  	0,177755  	-2,844677  	8936,312054  	1095,933994  	0,158952  	-0,047957  
231,555000  	9,934286  	65,626911  	657,272221  	-242,047242  	79,901114  	76,079582  	0,004009  	0,008292  	0,003963  	0,004000  	0,004327  	0,000002  	-0,000000  	25,622259  	20,063487  	22,165905  	33,612287  	49,671278  	46,851886  	48,696681  	54,326757  	65,399121  	63,428044  	65,690725  	72,732870  	25,255175  	23,231886  	19,330345  	74,796309  	0,007009  	0,003552  	-828,167862  	-32729,842083  	-0,035207  	-0,049976  	0,285119  	0,144472  	-2,315485  	9231,669403  	1129,085828  	0,163760  	-0,047931  
232,554000  	9,933123  	65,645262  	57,725912  	956,927186  	79,892304  	76,088506  	0,004006  	0,008220  	0,003961  	0,003995  	0,004396  	0,000000  	-0,000000  	25,634738  	20,073896  	22,166380  	33,623245  	49,675408  	46,859136  	48,705946  	54,332442  	65,400119  	63,420632  	65,691349  	72,729554  	25,270446  	23,241049  	19,340652  	74,795267  	0,002188  	0,001109  	-258,584521  	21302,987925  	-0,021695  	-0,049996  	0,339672  	0,172114  	-2,745724  	9075,556555  	1052,720103  	0,152684  	-0,047948  
233,558000  	9,933246  	65,649709  	1256,818530  	956,927186  	79,889680  	76,096026  	0,004007  	0,008388  	0,003960  	0,004031  	0,004375  	0,000001  	-0,000000  	25,629426  	20,072811  	22,167666  	33,622486  	49,675544  	46,867287  	48,697244  	54,330038  	65,410201  	63,435463  	65,690843  	72,733640  	25,256550  	23,251312  	19,327463  	74,791612  	0,031588  	0,016006  	-3733,790991  	-4419,880623  	-0,012268  	-0,049990  	0,323074  	0,163704  	-2,604589  	9438,304516  	1080,279551  	0,156681  	-0,047943  
234,555000  	9,933796  	65,644857  	1256,818530  	357,439972  	79,894178  	76,093031  	0,004009  	0,008210  	0,003962  	0,003905  	0,004413  	0,000001  	-0,000000  	25,607671  	20,066072  	22,154849  	33,611562  	49,666066  	46,842032  	48,696744  	54,319292  	65,407032  	63,417443  	65,680833  	72,725146  	25,256208  	23,224355  	19,330457  	74,785051  	-0,070281  	-0,035612  	8306,629554  	-16231,735922  	-0,015673  	-0,049991  	0,353132  	0,178935  	-2,852543  	9054,441410  	1121,572824  	0,162670  	-0,047944  
235,555000  	9,933613  	65,645044  	357,499067  	357,439972  	79,904925  	76,093000  	0,004010  	0,008263  	0,003962  	0,004043  	0,004308  	0,000001  	-0,000000  	25,615824  	20,072180  	22,156459  	33,623908  	49,670572  	46,851841  	48,697053  	54,332338  	65,415537  	63,435817  	65,683265  	72,728247  	25,269320  	23,239571  	19,345028  	74,792403  	0,041289  	0,020922  	-4880,063117  	-1,684897  	-0,026846  	-0,049988  	0,270366  	0,136996  	-2,190160  	9169,619302  	1139,458574  	0,165264  	-0,047942  
236,553000  	9,933307  	65,647034  	957,045375  	956,927186  	79,905738  	76,082453  	0,004010  	0,008368  	0,003962  	0,003967  	0,004383  	0,000002  	-0,000000  	25,623560  	20,081957  	22,173909  	33,633925  	49,681322  	46,863342  	48,698779  	54,325986  	65,406204  	63,452518  	65,675817  	72,738207  	25,268294  	23,250297  	19,344665  	74,789689  	-0,020210  	-0,010241  	2388,752022  	-1,916222  	-0,013759  	-0,049975  	0,329535  	0,166978  	-2,677427  	9395,226706  	1138,265249  	0,165091  	-0,047930  
237,554000  	9,931410  	65,636024  	57,725912  	-242,047242  	79,904426  	76,083888  	0,004008  	0,008227  	0,003965  	0,003920  	0,004321  	-0,000001  	-0,000000  	25,617617  	20,069673  	22,169501  	33,612633  	49,669903  	46,859338  	48,683775  	54,325900  	65,408672  	63,425343  	65,676302  	72,731800  	25,253796  	23,235199  	19,326493  	74,785225  	-0,058551  	-0,029668  	6919,389578  	-27704,961090  	-0,093577  	-0,050010  	0,280098  	0,141928  	-2,274118  	9090,665482  	1095,107846  	0,158832  	-0,047960  
238,555000  	9,931165  	65,611391  	1256,818530  	357,439972  	79,904550  	76,096494  	0,004007  	0,008199  	0,003961  	0,004020  	0,004378  	0,000002  	-0,000000  	25,621163  	20,071049  	22,156795  	33,619757  	49,668228  	46,861966  	48,694821  	54,326066  	65,417745  	63,431946  	65,679468  	72,732331  	25,234013  	23,239887  	19,341581  	74,776125  	0,023171  	0,011741  	-2737,135046  	-16228,052938  	-0,015669  	-0,049979  	0,325983  	0,165178  	-2,638022  	9031,805963  	1068,346303  	0,154951  	-0,047933  
239,554000  	9,930248  	65,589650  	1256,818530  	1256,670793  	79,906581  	76,098055  	0,004013  	0,008254  	0,003964  	0,003984  	0,004312  	0,000002  	-0,000000  	25,631103  	20,065638  	22,172296  	33,619141  	49,672388  	46,863414  	48,688813  	54,328243  	65,419777  	63,439467  	65,680400  	72,729798  	25,242859  	23,253850  	19,335230  	74,781271  	-0,006650  	-0,003370  	785,241300  	-1,992800  	-0,011064  	-0,049979  	0,273155  	0,138410  	-2,210786  	9148,693045  	1201,716233  	0,174294  	-0,047933  
240,554000  	9,929636  	65,579138  	57,725912  	1256,670793  	79,909268  	76,102111  	0,004005  	0,008256  	0,003963  	0,003998  	0,004361  	0,000000  	-0,000000  	25,630819  	20,066169  	22,168780  	33,617933  	49,674157  	46,862484  	48,686222  	54,323308  	65,424293  	63,430500  	65,676806  	72,729537  	25,235138  	23,250698  	19,338669  	74,780403  	0,004841  	0,002453  	-571,516499  	24490,490834  	-0,018201  	-0,049999  	0,312077  	0,158132  	-2,524890  	9153,698226  	1030,647126  	0,149483  	-0,047950  
241,554000  	9,928963  	65,577085  	-242,047242  	57,696365  	79,907268  	76,101393  	0,004004  	0,008274  	0,003962  	0,003944  	0,004300  	0,000000  	-0,000000  	25,629313  	20,068574  	22,168941  	33,624425  	49,673466  	46,860888  	48,692010  	54,327543  	65,424798  	63,430952  	65,678644  	72,735419  	25,234982  	23,258628  	19,345791  	74,788083  	-0,038683  	-0,019601  	4566,807959  	27698,966853  	-0,093566  	-0,049999  	0,263620  	0,133578  	-2,132131  	9193,436183  	1014,844399  	0,147191  	-0,047951  
242,556000  	9,927495  	65,578142  	-242,047242  	1256,670793  	79,909268  	76,102517  	0,004008  	0,008257  	0,003965  	0,004075  	0,004295  	0,000001  	-0,000000  	25,625409  	20,067265  	22,165483  	33,619905  	49,671173  	46,858090  	48,683577  	54,322935  	65,422631  	63,437983  	65,670871  	72,726205  	25,236444  	23,261978  	19,336357  	74,784615  	0,067686  	0,034297  	-7991,194145  	35504,147028  	-0,021694  	-0,049992  	0,260081  	0,131785  	-2,103991  	9155,433592  	1098,525416  	0,159328  	-0,047945  
243,554000  	9,926760  	65,578982  	657,272221  	1256,670793  	79,910424  	76,101893  	0,004007  	0,008286  	0,003964  	0,003945  	0,004356  	0,000002  	-0,000000  	25,622211  	20,071001  	22,164416  	33,619691  	49,673499  	46,858317  	48,684699  	54,329062  	65,430272  	63,435352  	65,669279  	72,728848  	25,236669  	23,274327  	19,331122  	74,780680  	-0,038004  	-0,019257  	4487,032758  	9717,803100  	-0,013759  	-0,049973  	0,307838  	0,155984  	-2,491498  	9219,202079  	1076,494805  	0,156132  	-0,047928  
244,554000  	9,926760  	65,578236  	57,725912  	1256,670793  	79,909549  	76,100145  	0,004004  	0,008376  	0,003965  	0,004006  	0,004351  	0,000002  	-0,000000  	25,625571  	20,068891  	22,164921  	33,622388  	49,674788  	46,862555  	48,681123  	54,320407  	65,427894  	63,434408  	65,667776  	72,728350  	25,226414  	23,278100  	19,332311  	74,778320  	0,011362  	0,005757  	-1341,510005  	24480,513741  	-0,018193  	-0,049976  	0,304373  	0,154228  	-2,464012  	9411,836834  	1020,041363  	0,147944  	-0,047931  
245,553000  	9,926485  	65,576183  	957,045375  	57,696365  	79,908674  	76,092781  	0,004009  	0,008167  	0,003963  	0,003985  	0,004356  	0,000003  	-0,000000  	25,626085  	20,071187  	22,166245  	33,619222  	49,671908  	46,862137  	48,678239  	54,324667  	65,425466  	63,432840  	65,665851  	72,726427  	25,230687  	23,284681  	19,337580  	74,774115  	-0,005465  	-0,002769  	645,179787  	-21293,446880  	-0,021681  	-0,049965  	0,307981  	0,156056  	-2,497468  	8962,723848  	1123,422831  	0,162939  	-0,047921  
246,554000  	9,925812  	65,578796  	357,499067  	657,183579  	79,907675  	76,098398  	0,004007  	0,008193  	0,003963  	0,004072  	0,004349  	0,000001  	-0,000000  	25,627118  	20,075153  	22,161377  	33,616950  	49,670352  	46,860924  	48,679649  	54,325006  	65,431665  	63,433070  	65,660623  	72,732393  	25,229825  	23,289750  	19,339791  	74,782640  	0,065100  	0,032987  	-7686,288068  	7099,236019  	-0,021693  	-0,049993  	0,302445  	0,153251  	-2,448325  	9016,808813  	1070,076271  	0,155201  	-0,047945  
247,556000  	9,925445  	65,587473  	357,499067  	657,183579  	79,906081  	76,103827  	0,004007  	0,008424  	0,003962  	0,003992  	0,004343  	0,000002  	-0,000000  	25,626977  	20,074975  	22,161718  	33,610360  	49,670089  	46,857629  	48,674387  	54,318217  	65,432300  	63,430146  	65,659375  	72,732883  	25,230109  	23,294728  	19,341746  	74,794184  	0,000485  	0,000246  	-57,249705  	7096,420011  	-0,021684  	-0,049970  	0,297982  	0,150990  	-2,407750  	9515,059593  	1085,907242  	0,157498  	-0,047926  
248,554000  	9,925262  	65,596120  	957,045375  	1256,670793  	79,907206  	76,102454  	0,004007  	0,008278  	0,003963  	0,003953  	0,004341  	0,000001  	-0,000000  	25,628512  	20,070068  	22,165799  	33,608358  	49,668114  	46,854575  	48,668735  	54,320569  	65,433459  	63,428937  	65,660184  	72,725420  	25,233376  	23,307426  	19,343027  	74,788977  	-0,031733  	-0,016079  	3747,884664  	4415,539576  	-0,012267  	-0,049985  	0,296620  	0,150299  	-2,398318  	9201,604356  	1083,753608  	0,157185  	-0,047938  
249,554000  	9,925078  	65,596120  	-242,047242  	57,696365  	79,910861  	76,097493  	0,004007  	0,008253  	0,003964  	0,004075  	0,004369  	0,000002  	-0,000000  	25,629959  	20,065897  	22,172553  	33,613914  	49,673416  	46,861278  	48,669213  	54,323298  	65,437358  	63,434229  	65,660718  	72,721264  	25,228300  	23,318632  	19,336636  	74,781626  	0,067682  	0,034295  	-7993,686179  	27687,264950  	-0,093527  	-0,049976  	0,318593  	0,161433  	-2,581816  	9146,158973  	1070,040965  	0,155196  	-0,047931  
250,555000  	9,925200  	65,589588  	-242,047242  	657,183579  	79,913548  	76,098616  	0,004008  	0,008327  	0,003962  	0,004032  	0,004370  	0,000001  	-0,000000  	25,631189  	20,069969  	22,176760  	33,615533  	49,679871  	46,866738  	48,669642  	54,324998  	65,443764  	63,435187  	65,659468  	72,725153  	25,230481  	23,330723  	19,334823  	74,786356  	0,032493  	0,016464  	-3837,136078  	32734,475788  	-0,035215  	-0,049984  	0,319289  	0,161786  	-2,588520  	9307,211916  	1099,386869  	0,159453  	-0,047938  
251,553000  	9,925109  	65,584363  	-242,047242  	657,183579  	79,913298  	76,110037  	0,004007  	0,008268  	0,003963  	0,004016  	0,004367  	0,000002  	-0,000000  	25,634965  	20,076599  	22,167066  	33,619641  	49,682624  	46,865476  	48,670740  	54,329986  	65,452761  	63,433349  	65,655895  	72,729533  	25,233278  	23,346637  	19,342753  	74,789473  	0,019724  	0,009994  	-2328,996227  	32730,811946  	-0,035211  	-0,049978  	0,317173  	0,160714  	-2,563501  	9180,496286  	1084,735100  	0,157328  	-0,047933  
252,554000  	9,923090  	65,581937  	-242,047242  	1256,670793  	79,914548  	76,108352  	0,004010  	0,008428  	0,003962  	0,004049  	0,004322  	0,000001  	-0,000000  	25,627818  	20,076756  	22,163544  	33,622672  	49,689733  	46,864978  	48,670314  	54,327854  	65,446768  	63,433593  	65,656271  	72,725755  	25,226433  	23,347098  	19,340546  	74,786196  	0,046633  	0,023629  	-5506,501718  	35502,732460  	-0,021693  	-0,049990  	0,281536  	0,142656  	-2,277227  	9524,221728  	1132,482213  	0,164253  	-0,047943  
253,556000  	9,924680  	65,577800  	1256,818530  	57,696365  	79,912829  	76,108383  	0,004008  	0,008172  	0,003962  	0,003964  	0,004313  	0,000000  	-0,000000  	25,619954  	20,073264  	22,167085  	33,618608  	49,681677  	46,859034  	48,664324  	54,323684  	65,444383  	63,433941  	65,649283  	72,726956  	25,229433  	23,337453  	19,335883  	74,787201  	-0,022586  	-0,011445  	2666,713971  	-24491,105150  	-0,018198  	-0,049995  	0,274156  	0,138917  	-2,216515  	8972,485897  	1096,880181  	0,159089  	-0,047947  
254,554000  	9,923640  	65,577987  	1256,818530  	657,183579  	79,911205  	76,110692  	0,004007  	0,008284  	0,003960  	0,004007  	0,004325  	0,000001  	-0,000000  	25,622425  	20,076747  	22,172749  	33,621521  	49,683846  	46,871881  	48,663547  	54,331627  	65,449601  	63,442874  	65,652175  	72,731562  	25,227871  	23,331509  	19,338820  	74,793096  	0,012404  	0,006285  	-1464,608781  	-9724,312418  	-0,013763  	-0,049989  	0,283652  	0,143728  	-2,290915  	9214,779833  	1077,511602  	0,156280  	-0,047942  
255,556000  	9,923181  	65,576214  	1256,818530  	-242,047242  	79,911330  	76,116059  	0,004010  	0,008249  	0,003963  	0,004028  	0,004305  	0,000001  	-0,000000  	25,635941  	20,084613  	22,177106  	33,619947  	49,684362  	46,869364  	48,659433  	54,333258  	65,457586  	63,440409  	65,648378  	72,726607  	25,239681  	23,319426  	19,332852  	74,790181  	0,029687  	0,015043  	-3505,106410  	-35499,179760  	-0,021688  	-0,049984  	0,267718  	0,135655  	-2,159247  	9139,068240  	1139,762201  	0,165309  	-0,047937  
256,553000  	9,924038  	65,573104  	1256,818530  	956,927186  	79,913267  	76,110443  	0,004009  	0,008242  	0,003962  	0,004023  	0,004304  	0,000002  	-0,000000  	25,632552  	20,079761  	22,179726  	33,626456  	49,682874  	46,868645  	48,657667  	54,337356  	65,452095  	63,438035  	65,650028  	72,729436  	25,253739  	23,303089  	19,344350  	74,802390  	0,025272  	0,012806  	-2983,648143  	-4419,041860  	-0,012266  	-0,049980  	0,267253  	0,135419  	-2,159785  	9124,390147  	1113,141879  	0,161448  	-0,047934  
257,557000  	9,924374  	65,572637  	57,725912  	-242,047242  	79,914798  	76,112252  	0,004007  	0,008283  	0,003962  	0,004024  	0,004293  	0,000001  	-0,000000  	25,634208  	20,072613  	22,161979  	33,616392  	49,681640  	46,869673  	48,656931  	54,327780  	65,455225  	63,431322  	65,647454  	72,722327  	25,249845  	23,279755  	19,343245  	74,790046  	0,025879  	0,013113  	-3055,243731  	-27692,658547  	-0,093536  	-0,049985  	0,258235  	0,130849  	-2,086750  	9211,809975  	1069,737338  	0,155152  	-0,047939  
258,554000  	9,922784  	65,571953  	1256,818530  	-242,047242  	79,916547  	76,111191  	0,004007  	0,008282  	0,003963  	0,004031  	0,004342  	0,000002  	-0,000000  	25,634709  	20,078510  	22,178548  	33,621493  	49,686619  	46,877330  	48,656699  	54,334671  	65,460758  	63,444551  	65,654178  	72,733071  	25,277317  	23,273622  	19,349108  	74,794201  	0,031870  	0,016149  	-3762,535106  	-35495,193416  	-0,021686  	-0,049977  	0,297235  	0,150611  	-2,403680  	9209,478232  	1072,406431  	0,155539  	-0,047932  
259,558000  	9,922325  	65,575312  	1256,818530  	-242,047242  	79,915360  	76,104639  	0,004006  	0,008353  	0,003962  	0,004044  	0,004348  	0,000002  	-0,000000  	25,631116  	20,076438  	22,169894  	33,613416  	49,680021  	46,878465  	48,652221  	54,336475  	65,458539  	63,439811  	65,641834  	72,722460  	25,280098  	23,250600  	19,340276  	74,784961  	0,042512  	0,021541  	-5019,339573  	-35494,181878  	-0,021685  	-0,049976  	0,302198  	0,153126  	-2,447259  	9361,796338  	1056,490727  	0,153231  	-0,047931  
260,555000  	9,923120  	65,577116  	1256,818530  	-242,047242  	79,913860  	76,106511  	0,004007  	0,008201  	0,003963  	0,004058  	0,004355  	0,000000  	-0,000000  	25,622665  	20,079286  	22,157965  	33,618306  	49,677912  	46,872126  	48,655866  	54,331778  	65,451498  	63,426741  	65,628427  	72,725609  	25,286663  	23,229454  	19,328851  	74,791332  	0,053487  	0,027102  	-6315,209558  	-35506,473755  	-0,021693  	-0,049995  	0,307400  	0,155762  	-2,487185  	9034,569248  	1069,949171  	0,155183  	-0,047947  
261,556000  	9,922570  	65,584176  	57,725912  	956,927186  	79,916422  	76,103671  	0,004010  	0,008295  	0,003960  	0,003974  	0,004382  	0,000002  	-0,000000  	25,626598  	20,070729  	22,173900  	33,624692  	49,676311  	46,866485  	48,643681  	54,324330  	65,455959  	63,431428  	65,635082  	72,718160  	25,301585  	23,214832  	19,336665  	74,778960  	-0,014803  	-0,007501  	1748,048691  	21295,332471  	-0,021687  	-0,049976  	0,329033  	0,166724  	-2,665991  	9237,004961  	1141,245030  	0,165524  	-0,047931  
262,554000  	9,921713  	65,589961  	1256,818530  	-242,047242  	79,917547  	76,103796  	0,004008  	0,008374  	0,003963  	0,004089  	0,004349  	0,000001  	-0,000000  	25,628138  	20,081841  	22,174934  	33,621322  	49,687289  	46,881677  	48,654300  	54,327282  	65,473307  	63,456318  	65,644912  	72,725830  	25,309268  	23,204565  	19,343721  	74,773527  	0,078513  	0,039783  	-9272,488739  	-35498,592079  	-0,021688  	-0,049983  	0,302617  	0,153338  	-2,452594  	9407,303519  	1090,687602  	0,158191  	-0,047937  
263,555000  	9,921988  	65,589588  	1256,818530  	-242,047242  	79,916641  	76,109631  	0,004006  	0,008183  	0,003962  	0,004004  	0,004362  	0,000001  	-0,000000  	25,626678  	20,065426  	22,172993  	33,614376  	49,688717  	46,875611  	48,646597  	54,329407  	65,462213  	63,442026  	65,638729  	72,716477  	25,306196  	23,182247  	19,331222  	74,774744  	0,010152  	0,005144  	-1198,917365  	-35504,715915  	-0,021692  	-0,049992  	0,312661  	0,158428  	-2,529524  	8996,188173  	1056,518972  	0,153235  	-0,047945  
264,553000  	9,921560  	65,590023  	1256,818530  	956,927186  	79,913392  	76,113563  	0,004009  	0,008276  	0,003963  	0,004019  	0,004334  	0,000001  	-0,000000  	25,634318  	20,073604  	22,180372  	33,622263  	49,683659  	46,869717  	48,650325  	54,340101  	65,469094  	63,439729  	65,633724  	72,723023  	25,320616  	23,178619  	19,342250  	74,775760  	0,021629  	0,010959  	-2554,355135  	-4419,404428  	-0,012267  	-0,049984  	0,290514  	0,147206  	-2,345917  	9197,691472  	1110,282136  	0,161033  	-0,047938  
265,553000  	9,921682  	65,592076  	957,045375  	57,696365  	79,910174  	76,122363  	0,004008  	0,008286  	0,003961  	0,004039  	0,004255  	0,000000  	-0,000000  	25,634992  	20,078619  	22,174808  	33,624006  	49,684863  	46,884955  	48,657004  	54,335306  	65,470370  	63,448269  	65,642209  	72,728035  	25,314934  	23,179996  	19,341823  	74,781764  	0,038429  	0,019472  	-4538,693116  	-21304,791744  	-0,021693  	-0,049995  	0,227920  	0,115489  	-1,834651  	9217,835293  	1101,081531  	0,159698  	-0,047947  
266,556000  	9,922661  	65,590521  	357,499067  	657,183579  	79,906925  	76,114749  	0,004008  	0,008211  	0,003964  	0,004059  	0,004365  	0,000001  	-0,000000  	25,625920  	20,072133  	22,164648  	33,622996  	49,681591  	46,878080  	48,648439  	54,338778  	65,467875  	63,444517  	65,635431  	72,721551  	25,312274  	23,166351  	19,334105  	74,770806  	0,054233  	0,027480  	-6404,857139  	7098,933933  	-0,021692  	-0,049990  	0,315330  	0,159780  	-2,541179  	9056,983264  	1096,858998  	0,159086  	-0,047943  
267,553000  	9,922019  	65,588562  	1256,818530  	-242,047242  	79,904457  	76,107915  	0,004010  	0,008242  	0,003963  	0,003989  	0,004286  	0,000001  	-0,000000  	25,638985  	20,088367  	22,178399  	33,631220  	49,695250  	46,883065  	48,654492  	54,348994  	65,478635  	63,453885  	65,639221  	72,725650  	25,316314  	23,183014  	19,340864  	74,774887  	-0,002263  	-0,001147  	267,265624  	-35497,759966  	-0,021687  	-0,049981  	0,252845  	0,128119  	-2,039970  	9123,677042  	1131,528966  	0,164114  	-0,047935  
268,556000  	9,921713  	65,588437  	57,725912  	956,927186  	79,906331  	76,103172  	0,004008  	0,008257  	0,003965  	0,004036  	0,004365  	0,000003  	-0,000000  	25,635052  	20,080078  	22,174770  	33,630759  	49,689432  	46,876002  	48,648740  	54,338871  	65,478668  	63,456769  	65,635988  	72,723387  	25,307949  	23,187608  	19,339299  	74,775900  	0,035504  	0,017990  	-4192,913739  	21291,007850  	-0,021683  	-0,049965  	0,315048  	0,159637  	-2,546252  	9155,955687  	1098,843165  	0,159374  	-0,047921  
269,554000  	9,921958  	65,586789  	957,045375  	1256,670793  	79,906831  	76,099521  	0,004010  	0,008234  	0,003961  	0,004042  	0,004371  	0,000002  	-0,000000  	25,634410  	20,079154  	22,174631  	33,633825  	49,695445  	46,883515  	48,647099  	54,340491  	65,477368  	63,453917  	65,630455  	72,723106  	25,311331  	23,185617  	19,335382  	74,773551  	0,040825  	0,020687  	-4821,209145  	4414,939922  	-0,012265  	-0,049977  	0,320465  	0,162382  	-2,592859  	9106,909861  	1143,349236  	0,165829  	-0,047932  
270,556000  	9,922753  	65,588904  	357,499067  	1256,670793  	79,906644  	76,100270  	0,004011  	0,008244  	0,003962  	0,003925  	0,004346  	-0,000000  	-0,000000  	25,637912  	20,079635  	22,178189  	33,637125  	49,694223  	46,882102  	48,650603  	54,340713  	65,477087  	63,450336  	65,632959  	72,731050  	25,312359  	23,178959  	19,339383  	74,781995  	-0,053946  	-0,027335  	6370,850482  	16231,478702  	-0,015676  	-0,050001  	0,300098  	0,152062  	-2,427473  	9127,028922  	1158,099860  	0,167968  	-0,047953  
271,553000  	9,923671  	65,594036  	1256,818530  	1256,670793  	79,904113  	76,096931  	0,004007  	0,008267  	0,003964  	0,004076  	0,004326  	0,000001  	-0,000000  	25,636565  	20,080978  	22,178878  	33,636709  	49,696250  	46,885042  	48,643374  	54,337548  	65,484260  	63,452753  	65,634610  	72,729771  	25,318900  	23,171512  	19,340117  	74,789363  	0,067893  	0,034402  	-8018,567541  	-1,992918  	-0,011065  	-0,049982  	0,284703  	0,144261  	-2,303437  	9178,468745  	1072,300515  	0,155524  	-0,047936  
272,557000  	9,923365  	65,597208  	1256,818530  	1256,670793  	79,900739  	76,089692  	0,004008  	0,008292  	0,003962  	0,003964  	0,004313  	0,000002  	-0,000000  	25,635135  	20,076816  	22,174729  	33,637784  	49,693934  	46,884090  	48,639839  	54,339218  	65,484561  	63,456783  	65,627384  	72,721050  	25,327641  	23,158219  	19,334050  	74,782647  	-0,022534  	-0,011418  	2661,525636  	-1,992846  	-0,011064  	-0,049980  	0,273827  	0,138750  	-2,217690  	9230,707983  	1103,030393  	0,159981  	-0,047934  
273,554000  	9,923579  	65,601749  	957,045375  	57,696365  	79,898302  	76,089692  	0,004007  	0,008349  	0,003964  	0,004020  	0,004345  	0,000001  	-0,000000  	25,629874  	20,064672  	22,165920  	33,629691  	49,688576  	46,878920  	48,642266  	54,338621  	65,478831  	63,450405  	65,622907  	72,719138  	25,330171  	23,145709  	19,332458  	74,769181  	0,023197  	0,011754  	-2740,049805  	-21303,660535  	-0,021692  	-0,049992  	0,299376  	0,151696  	-2,423053  	9354,922792  	1082,306084  	0,156975  	-0,047944  
274,556000  	9,923396  	65,607970  	357,499067  	1256,670793  	79,897677  	76,098179  	0,004006  	0,008288  	0,003962  	0,004054  	0,004426  	0,000001  	-0,000000  	25,626247  	20,063695  	22,168116  	33,622529  	49,688011  	46,875143  	48,638602  	54,335464  	65,479023  	63,444248  	65,624076  	72,720628  	25,333145  	23,132276  	19,333223  	74,773248  	0,050259  	0,025467  	-5937,402366  	16226,431935  	-0,015671  	-0,049984  	0,363786  	0,184333  	-2,937332  	9222,893533  	1045,404811  	0,151623  	-0,047938  
275,554000  	9,923854  	65,611888  	1256,818530  	357,439972  	79,901364  	76,107541  	0,004008  	0,008245  	0,003961  	0,003958  	0,004374  	0,000001  	-0,000000  	25,632423  	20,077918  	22,174906  	33,629987  	49,691343  	46,881674  	48,638149  	54,342226  	65,486613  	63,456757  	65,626585  	72,726831  	25,344813  	23,117240  	19,338518  	74,783165  	-0,027123  	-0,013743  	3204,398686  	-16230,782483  	-0,015672  	-0,049988  	0,322299  	0,163312  	-2,598470  	9129,313973  	1098,666638  	0,159348  	-0,047941  
276,556000  	9,924099  	65,604548  	57,725912  	956,927186  	79,904675  	76,109288  	0,004010  	0,008234  	0,003963  	0,004064  	0,004330  	0,000002  	-0,000000  	25,638586  	20,088244  	22,177315  	33,631273  	49,696259  	46,893675  	48,645219  	54,351468  	65,499594  	63,467557  	65,634293  	72,731200  	25,357819  	23,099330  	19,346140  	74,783184  	0,058379  	0,029581  	-6896,171453  	21292,471232  	-0,021684  	-0,049969  	0,287482  	0,145669  	-2,318715  	9106,936036  	1141,442741  	0,165552  	-0,047925  
277,554000  	9,923059  	65,602496  	1256,818530  	57,696365  	79,903270  	76,108352  	0,004008  	0,008224  	0,003961  	0,003970  	0,004303  	0,000000  	-0,000000  	25,634067  	20,086927  	22,179561  	33,624820  	49,696583  	46,889756  	48,642444  	54,348063  	65,504646  	63,456473  	65,638453  	72,719674  	25,361824  	23,073176  	19,341627  	74,782130  	-0,017369  	-0,008801  	2051,706221  	-24491,517688  	-0,018199  	-0,049996  	0,266485  	0,135030  	-2,149097  	9085,353977  	1105,819525  	0,160386  	-0,047948  
278,557000  	9,922570  	65,604175  	657,272221  	1256,670793  	79,903457  	76,096806  	0,004008  	0,008249  	0,003961  	0,003974  	0,004407  	0,000001  	-0,000000  	25,628787  	20,081251  	22,167313  	33,629101  	49,697267  	46,887616  	48,635390  	54,343776  	65,496365  	63,447899  	65,629150  	72,714176  	25,363464  	23,049458  	19,338454  	74,774771  	-0,014042  	-0,007115  	1658,823508  	9720,354837  	-0,013762  	-0,049987  	0,348954  	0,176817  	-2,822871  	9137,946230  	1090,920618  	0,158225  	-0,047940  
279,554000  	9,921744  	65,601283  	657,272221  	1256,670793  	79,906831  	76,079738  	0,004007  	0,008330  	0,003965  	0,004019  	0,004341  	0,000000  	-0,000000  	25,641064  	20,080643  	22,164824  	33,631196  	49,706233  	46,897228  	48,644367  	54,347782  	65,498381  	63,450849  	65,630011  	72,726154  	25,371747  	23,029912  	19,343982  	74,775909  	0,022330  	0,011315  	-2637,746130  	9722,425275  	-0,013765  	-0,049999  	0,295938  	0,149954  	-2,406848  	9313,344767  	1066,969390  	0,154751  	-0,047951  
280,558000  	9,920336  	65,595809  	1256,818530  	1256,670793  	79,904894  	76,082047  	0,004009  	0,008308  	0,003962  	0,004007  	0,004311  	0,000001  	-0,000000  	25,650528  	20,084817  	22,184582  	33,635864  	49,715227  	46,903692  	48,652395  	54,354265  	65,509565  	63,455583  	65,644754  	72,733898  	25,386921  	23,024877  	19,341768  	74,779733  	0,012606  	0,006387  	-1488,920744  	-1,993180  	-0,011066  	-0,049989  	0,272872  	0,138266  	-2,216794  	9266,085242  	1122,010612  	0,162734  	-0,047942  
281,555000  	9,921407  	65,599883  	957,045375  	57,696365  	79,901739  	76,079519  	0,004008  	0,008177  	0,003963  	0,003886  	0,004367  	0,000002  	-0,000000  	25,639610  	20,072547  	22,175467  	33,629079  	49,708316  	46,906985  	48,648301  	54,357592  	65,514113  	63,453885  	65,627588  	72,727368  	25,386657  	23,003271  	19,339389  	74,778904  	-0,085778  	-0,043465  	10132,361206  	-21296,514409  	-0,021684  	-0,049973  	0,316531  	0,160389  	-2,571050  	8984,305200  	1095,093724  	0,158830  	-0,047928  
282,552000  	9,920306  	65,610022  	-242,047242  	657,183579  	79,903988  	76,095433  	0,004005  	0,008253  	0,003963  	0,004033  	0,004314  	0,000001  	-0,000000  	25,632390  	20,064365  	22,166931  	33,621695  	49,702800  	46,885351  	48,634683  	54,347951  	65,495627  	63,443494  	65,622825  	72,723827  	25,377771  	22,976544  	19,333088  	74,774648  	0,033395  	0,016921  	-3945,450117  	32737,333969  	-0,035218  	-0,049989  	0,275227  	0,139460  	-2,227569  	9147,473408  	1042,439151  	0,151193  	-0,047942  
283,554000  	9,919939  	65,617953  	657,272221  	657,183579  	79,907550  	76,100270  	0,004007  	0,008231  	0,003961  	0,003974  	0,004378  	-0,000000  	-0,000000  	25,632869  	20,086168  	22,184225  	33,638503  	49,710608  	46,900614  	48,639490  	54,354196  	65,507946  	63,457730  	65,628733  	72,724304  	25,393895  	22,974430  	19,344987  	74,787154  	-0,014720  	-0,007459  	1739,429369  	-1,810745  	-0,018201  	-0,050002  	0,325707  	0,165038  	-2,635252  	9098,962411  	1074,955486  	0,155909  	-0,047954  
284,553000  	9,918348  	65,619695  	1256,818530  	57,696365  	79,906862  	76,089786  	0,004007  	0,008264  	0,003961  	0,004056  	0,004310  	0,000001  	-0,000000  	25,631374  	20,077642  	22,173054  	33,633747  	49,699341  	46,892958  	48,643518  	54,352452  	65,505959  	63,454738  	65,620089  	72,719143  	25,377934  	22,955162  	19,331573  	74,780185  	0,052378  	0,026540  	-6189,573933  	-24489,996678  	-0,018197  	-0,049992  	0,272092  	0,137871  	-2,207119  	9170,976183  	1084,473840  	0,157290  	-0,047945  
285,557000  	9,919021  	65,621126  	957,045375  	57,696365  	79,906300  	76,092844  	0,004004  	0,008264  	0,003960  	0,004019  	0,004371  	0,000001  	-0,000000  	25,630435  	20,084037  	22,170379  	33,631704  	49,706446  	46,902406  	48,643068  	54,359266  	65,503242  	63,454189  	65,622748  	72,727536  	25,382643  	22,957118  	19,336957  	74,784192  	0,022009  	0,011152  	-2600,827231  	-21300,543076  	-0,021689  	-0,049984  	0,320152  	0,162223  	-2,594506  	9171,670895  	1012,888476  	0,146907  	-0,047937  
286,554000  	9,919143  	65,618451  	357,499067  	657,183579  	79,901489  	76,102142  	0,004010  	0,008237  	0,003962  	0,004031  	0,004321  	0,000000  	-0,000000  	25,651340  	20,081695  	22,171458  	33,632113  	49,711400  	46,902073  	48,639917  	54,362693  	65,511170  	63,464703  	65,624438  	72,723639  	25,365568  	22,934903  	19,340487  	74,793613  	0,031948  	0,016188  	-3775,157000  	7100,150598  	-0,021696  	-0,050000  	0,280779  	0,142273  	-2,267011  	9113,410583  	1141,054381  	0,165496  	-0,047951  
287,557000  	9,918593  	65,617705  	1256,818530  	657,183579  	79,897959  	76,102205  	0,004007  	0,008274  	0,003962  	0,003999  	0,004342  	0,000001  	-0,000000  	25,639219  	20,080865  	22,178626  	33,629825  	49,714334  	46,901263  	48,648821  	54,363143  	65,519011  	63,457754  	65,626434  	72,727647  	25,362781  	22,929798  	19,344870  	74,784643  	0,006004  	0,003042  	-709,439270  	-9724,262561  	-0,013763  	-0,049989  	0,297204  	0,150595  	-2,397356  	9191,909515  	1086,090830  	0,157524  	-0,047942  
288,553000  	9,918593  	65,618140  	57,725912  	1256,670793  	79,898646  	76,095527  	0,004006  	0,008240  	0,003961  	0,004008  	0,004269  	-0,000000  	-0,000000  	25,636729  	20,083255  	22,189787  	33,638012  	49,714611  	46,900122  	48,651152  	54,363419  	65,527028  	63,455662  	65,627825  	72,729251  	25,375501  	22,931011  	19,349870  	74,789039  	0,013209  	0,006693  	-1560,830323  	24491,410886  	-0,018201  	-0,050001  	0,239132  	0,121170  	-1,932673  	9119,338275  	1063,834264  	0,154296  	-0,047952  
289,558000  	9,918409  	65,608187  	1256,818530  	57,696365  	79,904301  	76,086259  	0,004010  	0,008224  	0,003963  	0,003945  	0,004316  	0,000001  	-0,000000  	25,638939  	20,074597  	22,171499  	33,634743  	49,709607  	46,894853  	48,653516  	54,365469  	65,517437  	63,453893  	65,624301  	72,724505  	25,354738  	22,910571  	19,335922  	74,793261  	-0,037618  	-0,019061  	4444,395479  	-24485,821076  	-0,018194  	-0,049983  	0,276873  	0,140294  	-2,246472  	9084,964174  	1136,838908  	0,164885  	-0,047937  
290,554000  	9,917492  	65,600598  	1256,818530  	1256,670793  	79,907487  	76,084200  	0,004005  	0,008310  	0,003960  	0,003987  	0,004364  	-0,000000  	-0,000000  	25,640896  	20,089259  	22,185266  	33,638591  	49,717448  	46,904085  	48,643706  	54,356470  	65,528338  	63,463348  	65,625559  	72,728411  	25,363835  	22,915899  	19,350594  	74,795180  	-0,004122  	-0,002089  	486,947345  	-1,993704  	-0,011069  	-0,050004  	0,314857  	0,159540  	-2,558168  	9269,381942  	1031,734534  	0,149640  	-0,047955  
291,555000  	9,917859  	65,596399  	1256,818530  	357,439972  	79,910486  	76,095621  	0,004008  	0,008335  	0,003964  	0,003959  	0,004313  	0,000000  	-0,000000  	25,638069  	20,084778  	22,177752  	33,644060  	49,706347  	46,902776  	48,644839  	54,361932  	65,525521  	63,463058  	65,628400  	72,728993  	25,356218  	22,925790  	19,343798  	74,795198  	-0,026782  	-0,013571  	3163,560035  	-16232,658451  	-0,015673  	-0,049995  	0,274381  	0,139031  	-2,224406  	9324,195576  	1090,539319  	0,158169  	-0,047947  
292,595000  	9,918165  	65,593973  	57,725912  	956,927186  	79,912298  	76,099927  	0,004008  	0,008182  	0,003963  	0,003966  	0,004317  	0,000000  	-0,000000  	25,639093  	20,080878  	22,174778  	33,637823  	49,708139  	46,899511  	48,642192  	54,357416  	65,522855  	63,456624  	65,624922  	72,723406  	25,336183  	22,928931  	19,338344  	74,795841  	-0,021040  	-0,010661  	2485,197403  	21302,816313  	-0,021695  	-0,049996  	0,277150  	0,140434  	-2,245385  	8993,537372  	1091,541994  	0,158315  	-0,047948  
293,554000  	9,916819  	65,592698  	957,045375  	956,927186  	79,906987  	76,105918  	0,004006  	0,008269  	0,003961  	0,003977  	0,004308  	0,000002  	-0,000000  	25,637020  	20,084067  	22,176857  	33,634718  	49,709419  	46,902751  	48,640702  	54,364598  	65,521965  	63,461302  	65,625896  	72,719045  	25,336089  	22,949939  	19,345260  	74,789986  	-0,012359  	-0,006262  	1459,760959  	-1,916272  	-0,013760  	-0,049976  	0,270103  	0,136863  	-2,181801  	9182,791241  	1063,092849  	0,154189  	-0,047931  
294,557000  	9,917430  	65,598483  	-242,047242  	357,439972  	79,907862  	76,098179  	0,004009  	0,008182  	0,003963  	0,004041  	0,004369  	0,000001  	-0,000000  	25,651500  	20,078936  	22,175724  	33,639033  	49,717415  	46,907242  	48,650717  	54,373435  	65,533879  	63,466606  	65,627594  	72,722567  	25,334793  	22,975538  	19,350855  	74,786741  	0,039876  	0,020206  	-4710,482326  	30933,262622  	-0,051166  	-0,049983  	0,318184  	0,161226  	-2,576006  	8994,856052  	1121,904696  	0,162719  	-0,047937  
295,553000  	9,916972  	65,604268  	-242,047242  	1256,670793  	79,910705  	76,088132  	0,004006  	0,008367  	0,003961  	0,003984  	0,004420  	0,000000  	-0,000000  	25,633658  	20,070374  	22,169845  	33,625822  	49,708868  	46,894557  	48,634778  	54,363608  	65,522915  	63,453617  	65,618456  	72,721450  	25,339268  	22,978757  	19,337922  	74,783521  	-0,006077  	-0,003079  	717,933481  	35507,283001  	-0,021696  	-0,049997  	0,358851  	0,181833  	-2,915077  	9392,218645  	1065,352399  	0,154516  	-0,047949  
296,556000  	9,917155  	65,608934  	-242,047242  	1256,670793  	79,912455  	76,090628  	0,004007  	0,008253  	0,003963  	0,004035  	0,004400  	0,000002  	-0,000000  	25,634235  	20,073253  	22,165656  	33,630024  	49,707307  	46,894762  	48,634621  	54,360178  	65,525165  	63,447476  	65,624011  	72,719981  	25,342477  	22,996170  	19,343299  	74,782410  	0,035275  	0,017874  	-4167,776890  	35497,009180  	-0,021689  	-0,049981  	0,343110  	0,173856  	-2,786660  	9147,106950  	1085,999036  	0,157511  	-0,047935  
297,554000  	9,916390  	65,608872  	-242,047242  	1256,670793  	79,910924  	76,098055  	0,004008  	0,008298  	0,003961  	0,004002  	0,004372  	0,000001  	-0,000000  	25,645559  	20,082742  	22,169985  	33,637794  	49,715922  	46,902643  	48,637639  	54,365311  	65,530892  	63,450543  	65,629298  	72,730418  	25,346313  	23,014184  	19,351218  	74,791665  	0,008589  	0,004352  	-1014,846968  	35502,914482  	-0,021693  	-0,049990  	0,320714  	0,162508  	-2,598665  	9245,156156  	1098,483049  	0,159321  	-0,047943  
298,638000  	9,916390  	65,610178  	357,499067  	657,183579  	79,906800  	76,100613  	0,004010  	0,008172  	0,003964  	0,004028  	0,004346  	0,000002  	-0,000000  	25,646882  	20,081459  	22,178463  	33,637726  	49,717552  	46,902567  	48,635557  	54,367872  	65,533746  	63,451499  	65,630209  	72,730934  	25,359389  	23,027620  	19,350973  	74,794042  	0,029271  	0,014832  	-3458,486752  	7097,387624  	-0,021687  	-0,049978  	0,300464  	0,152247  	-2,430315  	8973,103498  	1135,659705  	0,164714  	-0,047933  
299,554000  	9,916849  	65,612604  	1256,818530  	657,183579  	79,903863  	76,111566  	0,004007  	0,008271  	0,003961  	0,004014  	0,004344  	0,000001  	-0,000000  	25,637987  	20,076532  	22,177774  	33,641098  	49,714775  	46,900922  	48,642535  	54,365662  	65,535480  	63,453969  	65,628137  	72,723207  	25,369320  	23,036787  	19,349265  	74,791158  	0,017922  	0,009081  	-2117,686620  	-9724,945606  	-0,013763  	-0,049993  	0,298755  	0,151381  	-2,407676  	9187,077657  	1075,788695  	0,156030  	-0,047945  
300,556000  	9,915931  	65,617518  	57,725912  	57,696365  	79,900677  	76,099958  	0,004009  	0,008232  	0,003961  	0,004007  	0,004401  	0,000001  	-0,000000  	25,635555  	20,076646  	22,175461  	33,638920  	49,712517  	46,901576  	48,643731  	54,361034  	65,532057  	63,458291  	65,623466  	72,719724  	25,370932  	23,043837  	19,343654  	74,787246  	0,012070  	0,006116  	-1426,357983  	-1,524722  	-0,051169  	-0,049989  	0,343703  	0,174157  	-2,776066  	9101,106680  	1129,940220  	0,163884  	-0,047942  
